{
  "resourceType": "Bundle",
  "type": "collection",
  "entry": [
    {
      "resource": {
        "resourceType": "Condition",
        "id": "802d77cf-9d1b-489e-8f99-7bd6ca8c6e1d",
        "meta": {
          "extension": [
            {
              "url": "https://fhir-ehr.cerner.com/r4/StructureDefinition/transmitting-organization",
              "valueUri": "urn:oid:2.16.840.1.113883"
            }
          ],
          "security": [
            {
              "system": "http://terminology.hl7.org/CodeSystem/v3-Confidentiality",
              "code": "N"
            }
          ],
          "tag": [
            {
              "system": "urn:oid:2.16.840.1.113883.3.13.10.1.1",
              "code": "FHIRr4-CR"
            }
          ]
        },
        "identifier": [
          {
            "system": "urn:ietf:rfc:3986",
            "value": "urn:uuid:04c0e62e-f79b-4551-86d3-f1e5b51c510a"
          },
          {
            "system": "urn:oid:2.16.840.1.113883.3.13.10.2.2",
            "value": "802d77cf-9d1b-489e-8f99-7bd6ca8c6e1d"
          }
        ],
        "clinicalStatus": {
          "coding": [
            {
              "system": "http://terminology.hl7.org/CodeSystem/condition-clinical",
              "code": "active",
              "display": "Active"
            }
          ],
          "text": "Active"
        },
        "category": [
          {
            "coding": [
              {
                "system": "http://terminology.hl7.org/CodeSystem/condition-category",
                "code": "problem-list-item",
                "display": "Problem List Item"
              }
            ],
            "text": "Problem List Item"
          }
        ],
        "code": {
          "coding": [
            {
              "system": "http://snomed.info/sct",
              "code": "230145002",
              "display": "Difficulty Breathing )finding)"
            }
          ],
          "text": "Difficulty Breathing )finding)"
        },
        "subject": {
          "reference": "Patient/18025725"
        },
        "encounter": {
          "reference": "Encounter/3608e90a-397b-4f68-b6e4-c372fb18ed75"
        },
        "onsetDateTime": "2020-05-13"
      }
    },
    {
      "resource": {
        "resourceType": "DocumentReference",
        "id": "5560ec42-50e4-4803-87b0-a483c1cf2e2b",
        "meta": {
          "extension": [
            {
              "url": "https://fhir-ehr.cerner.com/r4/StructureDefinition/transmitting-organization",
              "valueUri": "urn:oid:2.16.840.1.113883"
            }
          ],
          "security": [
            {
              "system": "http://terminology.hl7.org/CodeSystem/v3-ObservationValue",
              "code": "UNCERTREL",
              "display": "uncertain reliability"
            }
          ],
          "tag": [
            {
              "system": "urn:oid:2.16.840.1.113883.3.13.10.1.1",
              "code": "FHIRr4-CR"
            }
          ]
        },
        "implicitRules": "http://www.hl7.org/ccdasearch/",
        "contained": [
          {
            "resourceType": "Practitioner",
            "id": "1",
            "identifier": [
              {
                "system": "urn:ietf:rfc:3986",
                "value": "urn:oid:2.16.840.1.113883.3.72.5.20"
              }
            ]
          },
          {
            "resourceType": "Organization",
            "id": "2",
            "identifier": [
              {
                "system": "http://hl7.org/fhir/sid/us-npi",
                "value": "TBDFacility#"
              }
            ],
            "name": "Sacramento Hospital"
          }
        ],
        "masterIdentifier": {
          "system": "38e6a983-38ad-484f-a7d2-b294cdbe5435"
        },
        "identifier": [
          {
            "system": "urn:ietf:rfc:3986",
            "value": "urn:uuid:e7c22e2a-0be4-4a42-874b-b8789a9e816e"
          },
          {
            "system": "urn:oid:2.16.840.1.113883.3.13.10.2.2",
            "value": "5560ec42-50e4-4803-87b0-a483c1cf2e2b"
          }
        ],
        "status": "current",
        "docStatus": "final",
        "type": {
          "coding": [
            {
              "system": "http://loinc.org",
              "code": "34133-9"
            }
          ],
          "text": "Note Summary Documents"
        },
        "category": [
          {
            "text": "Clinical Note"
          }
        ],
        "subject": {
          "reference": "Patient/18025725"
        },
        "date": "2021-09-23T19:33:56.448+00:00",
        "author": [
          {
            "reference": "#1"
          }
        ],
        "custodian": {
          "reference": "#2"
        },
        "description": "Radiology Report",
        "securityLabel": [
          {
            "coding": [
              {
                "system": "http://terminology.hl7.org/CodeSystem/v3-Confidentiality",
                "code": "N"
              }
            ],
            "text": "normal"
          }
        ],
        "content": [
          {
            "attachment": {
              "contentType": "application/xml;charset=UTF-8",
              "title": "Initial Public Health Case Report",
              "creation": "2020-05-05T11:05:15-04:00"
            },
            "format": {
              "system": "http://ihe.net/fhir/ValueSet/IHE.FormatCode.codesystem",
              "code": "urn:hl7-org:sdwg:ccda-structuredBody:2.1"
            }
          }
        ],
        "context": {
          "period": {
            "end": "2021-09-23T19:33:56+00:00"
          }
        }
      }
    },
    {
      "resource": {
        "resourceType": "Encounter",
        "id": "3608e90a-397b-4f68-b6e4-c372fb18ed75",
        "meta": {
          "extension": [
            {
              "url": "https://fhir-ehr.cerner.com/r4/StructureDefinition/transmitting-organization",
              "valueUri": "urn:oid:2.16.840.1.113883"
            }
          ],
          "security": [
            {
              "system": "http://terminology.hl7.org/CodeSystem/v3-Confidentiality",
              "code": "N"
            }
          ],
          "tag": [
            {
              "system": "urn:oid:2.16.840.1.113883.3.13.10.1.1",
              "code": "FHIRr4-CR"
            },
            {
              "system": "urn:oid:2.16.840.1.113883.3.13.10.1.1",
              "code": "ee"
            }
          ]
        },
        "contained": [
          {
            "resourceType": "Practitioner",
            "id": "1",
            "identifier": [
              {
                "type": {
                  "coding": [
                    {
                      "system": "http://terminology.hl7.org/CodeSystem/v2-0203",
                      "code": "NPI",
                      "display": "National provider identifier"
                    }
                  ],
                  "text": "National Provider Identifier"
                },
                "system": "http://hl7.org/fhir/sid/us-npi",
                "value": "66666666666"
              }
            ],
            "name": [
              {
                "family": "SanDiego",
                "given": [
                  "Carmen"
                ]
              }
            ]
          },
          {
            "resourceType": "Organization",
            "id": "2",
            "identifier": [
              {
                "system": "http://hl7.org/fhir/sid/us-npi",
                "value": "TBDFacility#"
              }
            ],
            "name": "Sacramento Hospital"
          }
        ],
        "identifier": [
          {
            "system": "urn:oid:2.16.840.1.113883.19",
            "value": "9937016"
          },
          {
            "system": "urn:oid:2.16.840.1.113883.3.13.10.2.2",
            "value": "3608e90a-397b-4f68-b6e4-c372fb18ed75"
          }
        ],
        "status": "unknown",
        "class": {
          "system": "http://terminology.hl7.org/CodeSystem/v3-ActCode",
          "code": "AMB",
          "display": "Ambulatory"
        },
        "type": [
          {
            "coding": [
              {
                "system": "http://snomed.info/sct",
                "code": "33561000175104",
                "display": "Ambulatory"
              }
            ],
            "text": "inpatient encounter"
          }
        ],
        "subject": {
          "reference": "Patient/18025725"
        },
        "participant": [
          {
            "type": [
              {
                "coding": [
                  {
                    "system": "http://terminology.hl7.org/CodeSystem/v3-ParticipationType",
                    "code": "PART",
                    "display": "Participation"
                  }
                ],
                "text": "Participation"
              }
            ],
            "individual": {
              "reference": "#1"
            }
          }
        ],
        "period": {
          "start": "2020-05-13",
          "end": "2020-05-13"
        },
        "serviceProvider": {
          "reference": "#2"
        }
      }
    },
    {
      "resource": {
        "resourceType": "Observation",
        "id": "10f841c5-740d-446d-82e2-723eb42e2edc",
        "meta": {
          "extension": [
            {
              "url": "https://fhir-ehr.cerner.com/r4/StructureDefinition/transmitting-organization",
              "valueUri": "urn:oid:2.16.840.1.113883"
            }
          ],
          "security": [
            {
              "system": "http://terminology.hl7.org/CodeSystem/v3-Confidentiality",
              "code": "N"
            }
          ],
          "tag": [
            {
              "system": "urn:oid:2.16.840.1.113883.3.13.10.1.1",
              "code": "FHIRr4-CR"
            }
          ]
        },
        "identifier": [
          {
            "system": "urn:ietf:rfc:3986",
            "value": "urn:uuid:077fe949-6bbb-44b2-9430-f4f00cc4877d"
          },
          {
            "system": "urn:oid:2.16.840.1.113883.3.13.10.2.2",
            "value": "10f841c5-740d-446d-82e2-723eb42e2edc"
          }
        ],
        "status": "final",
        "category": [
          {
            "coding": [
              {
                "system": "http://terminology.hl7.org/CodeSystem/observation-category",
                "code": "laboratory",
                "display": "Laboratory"
              }
            ],
            "text": "Laboratory"
          }
        ],
        "code": {
          "coding": [
            {
              "system": "http://loinc.org",
              "code": "94308-4",
              "display": "SARS coronavirus 2 N gene [Presence] in Unspecified specimen by Nucleic acid amplification using primer-probe set N2"
            }
          ],
          "text": "SARS coronavirus 2 N gene [Presence] in Unspecified specimen by Nucleic acid amplification using primer-probe set N2"
        },
        "subject": {
          "reference": "Patient/18025725"
        },
        "encounter": {
          "reference": "Encounter/3608e90a-397b-4f68-b6e4-c372fb18ed75"
        },
        "effectiveDateTime": "2020-05-13",
        "valueCodeableConcept": {
          "coding": [
            {
              "system": "http://snomed.info/sct",
              "code": "260373001",
              "display": "Detected (qualifier value)"
            }
          ],
          "text": "Detected (qualifier value)"
        }
      }
    },
    {
      "resource": {
        "resourceType": "Provenance",
        "meta": {
          "tag": [
            {
              "system": "urn:oid:2.16.840.1.113883.3.13.10.1.1",
              "code": "FHIRr4-CR"
            }
          ]
        },
        "contained": [
          {
            "resourceType": "Organization",
            "id": "1",
            "identifier": [
              {
                "system": "urn:ietf:rfc:3986",
                "value": "urn:oid:2.16.840.1.113883"
              }
            ]
          }
        ],
        "target": [
          {
            "reference": "Encounter/3608e90a-397b-4f68-b6e4-c372fb18ed75"
          }
        ],
        "recorded": "2024-04-03T13:43:12.070+00:00",
        "agent": [
          {
            "type": {
              "coding": [
                {
                  "system": "http://hl7.org/fhir/us/core/CodeSystem/us-core-provenance-participant-type",
                  "code": "transmitter",
                  "display": "Transmitter"
                }
              ],
              "text": "Transmitter"
            },
            "who": {
              "reference": "#1"
            }
          }
        ],
        "entity": [
          {
            "role": "source",
            "what": {
              "reference": "DocumentReference/5560ec42-50e4-4803-87b0-a483c1cf2e2b"
            }
          }
        ]
      }
    },
    {
      "resource": {
        "resourceType": "Provenance",
        "meta": {
          "tag": [
            {
              "system": "urn:oid:2.16.840.1.113883.3.13.10.1.1",
              "code": "FHIRr4-CR"
            }
          ]
        },
        "contained": [
          {
            "resourceType": "Organization",
            "id": "1",
            "identifier": [
              {
                "system": "urn:ietf:rfc:3986",
                "value": "urn:oid:2.16.840.1.113883"
              }
            ]
          }
        ],
        "target": [
          {
            "reference": "Condition/802d77cf-9d1b-489e-8f99-7bd6ca8c6e1d"
          }
        ],
        "recorded": "2024-04-03T13:43:12.081+00:00",
        "agent": [
          {
            "type": {
              "coding": [
                {
                  "system": "http://hl7.org/fhir/us/core/CodeSystem/us-core-provenance-participant-type",
                  "code": "transmitter",
                  "display": "Transmitter"
                }
              ],
              "text": "Transmitter"
            },
            "who": {
              "reference": "#1"
            }
          }
        ],
        "entity": [
          {
            "role": "source",
            "what": {
              "reference": "DocumentReference/5560ec42-50e4-4803-87b0-a483c1cf2e2b"
            }
          }
        ]
      }
    },
    {
      "resource": {
        "resourceType": "Provenance",
        "meta": {
          "tag": [
            {
              "system": "urn:oid:2.16.840.1.113883.3.13.10.1.1",
              "code": "FHIRr4-CR"
            }
          ]
        },
        "contained": [
          {
            "resourceType": "Organization",
            "id": "1",
            "identifier": [
              {
                "system": "urn:ietf:rfc:3986",
                "value": "urn:oid:2.16.840.1.113883"
              }
            ]
          }
        ],
        "target": [
          {
            "reference": "Observation/10f841c5-740d-446d-82e2-723eb42e2edc"
          }
        ],
        "recorded": "2024-04-03T13:43:12.100+00:00",
        "agent": [
          {
            "type": {
              "coding": [
                {
                  "system": "http://hl7.org/fhir/us/core/CodeSystem/us-core-provenance-participant-type",
                  "code": "transmitter",
                  "display": "Transmitter"
                }
              ],
              "text": "Transmitter"
            },
            "who": {
              "reference": "#1"
            }
          }
        ],
        "entity": [
          {
            "role": "source",
            "what": {
              "reference": "DocumentReference/5560ec42-50e4-4803-87b0-a483c1cf2e2b"
            }
          }
        ]
      }
    }
  ]
}