    {
      "resource": {
        "resourceType": "Procedure",
        "id": "5184b226-5848-42b9-bf92-2cfa2e7524d2",
        "meta": {
          "extension": [
            {
              "url": "https://fhir-ehr.cerner.com/r4/StructureDefinition/transmitting-organization",
              "valueUri": "urn:oid:2.16.840.1.113883"
            }
          ],
          "security": [
            {
              "system": "http://terminology.hl7.org/CodeSystem/v3-Confidentiality",
              "code": "N"
            }
          ],
          "tag": [
            {
              "system": "urn:oid:2.16.840.1.113883.3.13.10.1.1",
              "code": "FHIRr4-CR"
            }
          ]
        },
        "contained": [
          {
            "resourceType": "Practitioner",
            "id": "1",
            "identifier": [
              {
                "type": {
                  "coding": [
                    {
                      "system": "http://terminology.hl7.org/CodeSystem/v2-0203",
                      "code": "NPI",
                      "display": "National provider identifier"
                    }
                  ],
                  "text": "National Provider Identifier"
                },
                "system": "http://hl7.org/fhir/sid/us-npi",
                "value": "99999999"
              }
            ],
            "name": [
              {
                "family": "Assigned",
                "given": [
                  "Amandaa"
                ]
              }
            ]
          },
          {
            "resourceType": "Practitioner",
            "id": "2",
            "identifier": [
              {
                "system": "urn:oid:2.16.840.1.113883.19.5.9999.456",
                "value": "2981824"
              }
            ],
            "name": [
              {
                "family": "Assigned",
                "given": [
                  "Amanda"
                ]
              }
            ]
          }
        ],
        "identifier": [
          {
            "system": "urn:oid:1.3.6.1.4.1.22812.3.2009316.3.4.7",
            "value": "545069400003"
          },
          {
            "system": "urn:oid:1.3.6.1.4.1.22812.3.2009316.3.4.7",
            "value": "545069400001"
          },
          {
            "system": "urn:oid:2.16.840.1.113883.3.13.10.2.2",
            "value": "5184b226-5848-42b9-bf92-2cfa2e7524d2"
          }
        ],
        "status": "completed",
        "code": {
          "coding": [
            {
              "system": "http://snomed.info/sct",
              "code": "416940007",
              "display": "H/O chest x-ray"
            },
            {
              "system": "urn:oid:2.16.840.1.113883.6.103",
              "code": "V15.89"
            },
            {
              "system": "urn:oid:2.16.840.1.113883.6.90",
              "code": "Z92.89"
            },
            {
              "system": "urn:oid:2.16.840.1.113883.3.247.1.1",
              "code": "2782946"
            }
          ],
          "text": "H/O chest x-ray"
        },
        "subject": {
          "reference": "Patient/18025725"
        },
        "encounter": {
          "reference": "Encounter/3ad658a6-ddd2-4b69-b48f-753692fc00a9"
        },
        "performedDateTime": "2012-08-16",
        "recorder": {
          "reference": "#1"
        },
        "performer": [
          {
            "actor": {
              "reference": "#2"
            }
          }
        ],
        "bodySite": [
          {
            "coding": [
              {
                "system": "http://snomed.info/sct",
                "code": "416550000",
                "display": "Chest and/or abdomen structure"
              }
            ],
            "text": "Chest and/or abdomen structure"
          }
        ]
      }
    }