{
  "entry": [
    {
      "request": {
        "method": "PUT",
        "url": "Composition/2f1bcacf1cd662c886aaa56a18d7f7b0"
      },
      "resource": {
        "attester": [
          {
            "mode": "professional",
            "party": {
              "reference": "PractitionerRole/00000000-31e9-f345-ffff-ffffb73ee369"
            }
          }
        ],
        "author": [
          {
            "reference": "PractitionerRole/00000000-31e9-f345-ffff-ffffb73ee369"
          },
          {
            "reference": "PractitionerRole/ffffffff-9f83-48fd-0000-00003faffa1a"
          }
        ],
        "confidentiality": "N",
        "custodian": {
          "reference": "Organization/ffffffff-aaca-f867-0000-0000070c5774"
        },
        "date": "2016-10-03",
        "id": "2f1bcacf1cd662c886aaa56a18d7f7b0",
        "meta": {
          "extension": [
            {
              "url": "urn:oid:google/reconciliation-timestamp",
              "valueInstant": "2016-10-03T18:27:10.000+00:00"
            }
          ],
          "tag": [
            {
              "code": "/",
              "system": "urn:oid:data-type/data-source"
            },
            {
              "code": "active",
              "system": "urn:oid:/bypass-reconciliation"
            }
          ]
        },
        "resourceType": "Composition",
        "section": [
          {
            "code": {
              "coding": [
                {
                  "code": "8716-3",
                  "display": "Vital Signs",
                  "system": "urn:oid:2.16.840.1.113883.6.1"
                }
              ]
            },
            "entry": [
              {
                "reference": "Observation/00000000-3c9b-c140-0000-0000446b8453"
              }
            ],
            "text": {
              "div": "{\"table\":[{\"tbody\":[{\"tr\":[{\"td\":[\"05/20/2014 7:36pm\",{\"ID\":\"Pulse_1\",\"value\":[\"80 /min\"]}]}]}],\"thead\":{\"tr\":[{\"th\":[\"Date\",\"Pulse\"]}]}}]}",
              "extension": [
                {
                  "url": "http://hl7.org/fhir/StructureDefinition/narrativeLink",
                  "valueUrl": "#Pulse_1"
                }
              ],
              "status": "generated"
            },
            "title": "Vital Signs (Last Filed)"
          },
          {
            "code": {
              "coding": [
                {
                  "code": "29762-2",
                  "display": "Social History",
                  "system": "urn:oid:2.16.840.1.113883.6.1"
                }
              ]
            },
            "entry": [
              {
                "reference": "Observation/ffffffff-8648-9c4a-0000-0000497b11be"
              }
            ],
            "text": {
              "div": "{\"list\":[{\"caption\":\"Smoking Status\",\"item\":[{\"ID\":\"SmokingStatus\",\"content\":[\"Status: Current every day smoker\",{\"ID\":\"SmokingDetail1\",\"value\":[\"Detail: Moderate smoker (10-19 cigs/day)\"]},\"Started: 1992\",\"Stopped:\",\"Recorded June 6, 2014 10:32am\"]}]}]}",
              "extension": [
                {
                  "url": "http://hl7.org/fhir/StructureDefinition/narrativeLink",
                  "valueUrl": "#SmokingStatus"
                }
              ],
              "status": "generated"
            },
            "title": "Social History"
          },
          {
            "code": {
              "coding": [
                {
                  "code": "46240-8",
                  "display": "Encounters",
                  "system": "urn:oid:2.16.840.1.113883.6.1"
                }
              ]
            },
            "entry": [
              {
                "reference": "Encounter/8495d700e83419090ba117378796fb89"
              }
            ],
            "text": {
              "div": "{\"table\":[{\"border\":\"1\",\"tbody\":[{\"tr\":[{\"ID\":\"Encounter1\",\"td\":[{\"ID\":\"Encounter1_type\",\"value\":[\"Office outpatient visit\"]},{\"content\":[{\"ID\":\"Encounter1_performer_type\",\"value\":[\"Internal Medicine\"]}],\"value\":[\"Dr. Samir Kahn\\n\\t\\t\\t\\t\\t\\t\\t\\t\\t\\t\"]},{\"paragraph\":[\"1004 Healthcare Dr.\",\"Portland, OR  97005\"],\"value\":[\"Community Urgent Care (Urgent Care Center)\\n\\t\\t\\t\\t\\t\\t\\t\\t\\t\\t\"]},\"August 15, 2012\",{\"ID\":\"Encounter1_diagnosis\",\"value\":[\"Costal Chondritis\"]},{\"ID\":\"Encounter1_diagnosis_status\",\"value\":[\"Active\"]}]}]}],\"thead\":{\"tr\":[{\"th\":[\"Encounter\",\"Performer\",\"Location\",\"Encounter date\",\"Diagnosis\",\"Diagnosis Status\"]}]},\"width\":\"100%\"}]}",
              "extension": [
                {
                  "url": "http://hl7.org/fhir/StructureDefinition/narrativeLink",
                  "valueUrl": "#Encounter1"
                }
              ],
              "status": "generated"
            },
            "title": "ENCOUNTERS"
          },
          {
            "code": {
              "coding": [
                {
                  "code": "11450-4",
                  "system": "urn:oid:2.16.840.1.113883.6.1"
                }
              ]
            },
            "entry": [
              {
                "reference": "Condition/00000000-782f-65e9-0000-00000340a9f0"
              },
              {
                "reference": "Condition/ffffffff-91c3-853d-ffff-ffff9a7633de"
              },
              {
                "reference": "Condition/ffffffff-a50a-9a08-0000-000031c48152"
              },
              {
                "reference": "Condition/ffffffff-c902-b799-ffff-ffffdce6b5fd"
              },
              {
                "reference": "Condition/00000000-26c0-d25f-ffff-ffffeb6296f8"
              },
              {
                "reference": "Condition/00000000-1f10-ed44-0000-00003bb3ac8a"
              }
            ],
            "text": {
              "div": "{\"table\":[{\"colgroup\":[{\"col\":[{\"width\":\"40%\"},{\"width\":\"20%\"},{\"width\":\"40%\"}]}],\"tbody\":[{\"styleCode\":\"xRowGroup\",\"tr\":[{\"td\":[{\"content\":[{\"ID\":\"_5011447a-e27f-471d-9e1f-541148c5282f\",\"value\":[\"Pneumonia\"]},{\"styleCode\":\"xSecondary\",\"value\":[\"(486) (J18.9)\"]}]},{\"content\":[{\"styleCode\":\"xLabel xSecondary\",\"value\":[\"Onset: \"]},\"6-Aug-2012\"]}]}]},{\"styleCode\":\"xRowGroup\",\"tr\":[{\"td\":[{\"content\":[{\"ID\":\"_4f1a62c2-9353-455a-bf3a-40f46a6115f4\",\"value\":[\"Asthma\"]},{\"styleCode\":\"xSecondary\",\"value\":[\"(493.90) (J45.909)\"]}]}]}]}]}]}",
              "extension": [
                {
                  "url": "http://hl7.org/fhir/StructureDefinition/narrativeLink",
                  "valueUrl": "#_5011447a-e27f-471d-9e1f-541148c5282f"
                },
                {
                  "url": "http://hl7.org/fhir/StructureDefinition/narrativeLink",
                  "valueUrl": "#_4f1a62c2-9353-455a-bf3a-40f46a6115f4"
                },
                {
                  "url": "http://hl7.org/fhir/StructureDefinition/narrativeLink",
                  "valueUrl": "#Problem1"
                }
              ],
              "status": "generated"
            },
            "title": "Problems"
          },
          {
            "code": {
              "coding": [
                {
                  "code": "47519-4",
                  "system": "urn:oid:2.16.840.1.113883.6.1"
                }
              ]
            },
            "entry": [
              {
                "reference": "Procedure/00000000-7c6c-eb5d-0000-00003baeed78"
              },
              {
                "reference": "Procedure/00000000-26f1-bc04-ffff-ffffb1852d21"
              },
              {
                "reference": "Procedure/00000000-7c6c-eb5d-0000-00003baeed78"
              },
              {
                "reference": "Procedure/00000000-0793-0dce-ffff-ffffafe3b379"
              }
            ],
            "text": {
              "div": "{\"table\":[{\"colgroup\":[{\"col\":[{\"width\":\"40%\"},{\"width\":\"20%\"},{\"width\":\"40%\"}]}],\"tbody\":[{\"styleCode\":\"xRowGroup\",\"tr\":[{\"td\":[{\"content\":[{\"ID\":\"_dfcf353c-538f-498a-9a53-80dda209e456\",\"value\":[\"H/O chest x-ray\"]}]}]},{\"td\":[{\"content\":[{\"ID\":\"_dfcf353c-538f-498a-9a53-80dda209e457\",\"value\":[\"Exercise stress test\"]}]}]}]}]}]}",
              "status": "generated"
            },
            "title": "Procedures"
          },
          {
            "code": {
              "coding": [
                {
                  "code": "30954-2",
                  "system": "urn:oid:2.16.840.1.113883.6.1"
                }
              ]
            },
            "entry": [
              {
                "reference": "DiagnosticReport/00000000-7331-fdb2-0000-00006d2c96b0"
              }
            ],
            "text": {
              "div": "{\"table\":[{\"colgroup\":[{\"col\":[{\"width\":\"20%\"},{\"width\":\"40%\"},{\"width\":\"40%\"}]}],\"tbody\":[{\"styleCode\":\"xRowGroup\",\"tr\":[{\"td\":[{\"content\":[{\"ID\":\"_3ffb46b1-9fe4-45f3-9a0f-e0e492563e7b\",\"styleCode\":\"xLabel xContentWrapping\",\"value\":[\"Urinanalysis macro (dipstick) panel\"]},{\"styleCode\":\"xSecondary xContentWrapping\",\"value\":[\"22-Jun-2015\"]}]},{\"content\":[{\"styleCode\":\"xLabel\",\"value\":[\"Laboratory: \"]},\" Value Labs\",\" 2474, Rocky place Beaverton OR 97006\",\" tel:+1-(555)666-1002\"]}]},{\"ID\":\"_13a52df8-79ed-4689-a9da-14c5905de830\",\"td\":[{\"content\":[{\"ID\":\"_ea838e08-d5eb-4ed4-a176-e5f9a831a780\",\"styleCode\":\"xSecondary\",\"value\":[\"Specific gravity of Urine by Test strip\"]},{\"styleCode\":\"xSecondary\",\"value\":[\" 1.015\"]}]},{\"content\":[{\"styleCode\":\"xLabel xSecondary\",\"value\":[\"Range: \"]},{\"ID\":\"_08b7d0ee-aff1-4144-a3a5-c89d56d855ad\",\"content\":[{\"styleCode\":\"xSecondary\",\"value\":[\"1.005\"]},{\"styleCode\":\"xSecondary\",\"value\":[\" - \"]},{\"styleCode\":\"xSecondary\",\"value\":[\"1.030\"]}]}]}]}]}]}]}",
              "status": "generated"
            },
            "title": "Results"
          },
          {
            "code": {
              "coding": [
                {
                  "code": "10160-0",
                  "display": "HISTORY OF MEDICATION USE",
                  "system": "urn:oid:2.16.840.1.113883.6.1"
                }
              ]
            },
            "entry": [
              {
                "reference": "MedicationRequest/ffffffff-f515-3f8c-ffff-ffffb17cc5b4"
              },
              {
                "reference": "MedicationRequest/00000000-47c6-6151-ffff-fffffd540bb4"
              }
            ],
            "text": {
              "div": "{\"table\":[{\"border\":\"1\",\"tbody\":[{\"tr\":[{\"td\":[\"Albuterol 0.09 MG/ACTUAT inhalant powder\",{\"content\":[{\"ID\":\"MedicationSig_PRN_222222\",\"value\":[\"0.09 MG/ACTUAT inhalant powder, 2 puffs every 4-6 hours as needed\"]}]},\"20120806\",\"Posted\"]}]}],\"thead\":{\"tr\":[{\"th\":[\"Medication\",\"Directions\",\"Start Date\",\"Status\"]}]},\"width\":\"100\"}]}",
              "status": "generated"
            },
            "title": "MEDICATIONS"
          },
          {
            "code": {
              "coding": [
                {
                  "code": "11369-6",
                  "display": "History of immunizations",
                  "system": "urn:oid:2.16.840.1.113883.6.1"
                }
              ]
            },
            "entry": [
              {
                "reference": "Immunization/ffffffff-ecee-769a-0000-0000118f0d6a"
              },
              {
                "reference": "Immunization/ffffffff-f900-3abf-ffff-ffff99ddd0be"
              }
            ],
            "text": {
              "div": "{\"content\":[{\"ID\":\"immunSect\"}],\"table\":[{\"border\":\"1\",\"tbody\":[{\"tr\":[{\"ID\":\"immun1\",\"td\":[{\"ID\":\"ImmunizationProduct_100\",\"value\":[\"Influenza Virus Vaccine\"]},\"1\",\"8/15/2010\",\"Completed\"]},{\"ID\":\"immun2\",\"td\":[{\"ID\":\"ImmunizationProduct_200\",\"value\":[\"Influenza Virus Vaccine\"]},\"1\",\"11/15/2015\",\"Noo given (patient objection)\"]}]}],\"thead\":{\"tr\":[{\"th\":[\"Vaccine\",\"Lot Number\",\"Date\",\"Status\"]}]},\"width\":\"100%\"}]}",
              "extension": [
                {
                  "url": "http://hl7.org/fhir/StructureDefinition/narrativeLink",
                  "valueUrl": "#immun1"
                },
                {
                  "url": "http://hl7.org/fhir/StructureDefinition/narrativeLink",
                  "valueUrl": "#immun2"
                }
              ],
              "status": "generated"
            },
            "title": "IMMUNIZATIONS"
          },
          {
            "code": {
              "coding": [
                {
                  "code": "48765-2",
                  "system": "urn:oid:2.16.840.1.113883.6.1"
                }
              ]
            },
            "entry": [
              {
                "reference": "AllergyIntolerance/00000000-0c8e-ced0-ffff-ffffd98a7bc6"
              },
              {
                "reference": "AllergyIntolerance/ffffffff-e9f4-fd68-ffff-ffff86b6a260"
              },
              {
                "reference": "AllergyIntolerance/ffffffff-e9f4-fd68-ffff-ffff86b6a260"
              }
            ],
            "text": {
              "div": "{\"table\":[{\"colgroup\":[{\"col\":[{\"width\":\"40%\"},{\"width\":\"20%\"},{\"width\":\"40%\"}]}],\"tbody\":[{\"tr\":[{\"td\":[{\"content\":[{\"ID\":\"_6db75b62-deb2-4bab-b597-00c8ae86f6b4\",\"value\":[\"Aspirin TABS\"]},{\"styleCode\":\"xSecondary\",\"value\":[\" (propensity to adverse reactions to drug)\"]}]},{\"content\":[{\"styleCode\":\"xSecondary\",\"value\":[\"Onset: 1-May-2008\"]}]},{\"content\":[{\"content\":[{\"styleCode\":\"xLabel xSecondary\",\"value\":[\"Reaction\"]},{\"ID\":\"_8a7ed342-967a-400e-88d5-2f8c2b7cdda0\",\"styleCode\":\"xAlert\",\"value\":[\"Hives\"]},{\"styleCode\":\"xAlert\",\"value\":[\" (Severe)\"]}],\"value\":[\":\\n\\t\\t\\t\\t\\t\\t\\t\\t\\t\\t\\t\"]}]},{\"content\":[{\"styleCode\":\"xSecondary\",\"value\":[\"Criticality: high criticality\"]}]}]}]}]}]}",
              "status": "generated"
            },
            "title": "Allergies and Adverse Reactions"
          },
          {
            "code": {
              "coding": [
                {
                  "code": "18776-5",
                  "display": "Plan of Treatment",
                  "system": "urn:oid:2.16.840.1.113883.6.1"
                }
              ]
            },
            "text": {
              "div": "{\"table\":[{\"border\":\"1\",\"tbody\":[{\"tr\":[{\"ID\":\"Goal1\",\"td\":[\"August 15, 2012 10:00am\",{\"ID\":\"Goal1_desc\",\"value\":[\"Weight Loss\"]},{\"ID\":\"Action1\",\"content\":[{\"ID\":\"Action1_Type\",\"value\":[\"Patient Education:\"]},{\"ID\":\"Action1_desc\",\"value\":[\"Diet and exercise counseling provided during\\n\\t\\t\\t\\t\\t\\t\\t\\t\\t\\t\\tvisit.\"]}]}]},{\"ID\":\"Goal2\",\"td\":[\"August 15, 2012 10:00am\",{\"ID\":\"Goal2_desc\",\"value\":[\"Asthma management\"]},{\"ID\":\"Action2\",\"content\":[{\"ID\":\"Action2_Type\",\"value\":[\"Patient Education:\"]},{\"ID\":\"Action2_desc\",\"value\":[\"Resources and instructions provided during\\n\\t\\t\\t\\t\\t\\t\\t\\t\\t\\t\\tvisit.\"]}]}]}]}],\"thead\":{\"tr\":[{\"th\":[\"Date/time\",\"Goal\",\"Instructions\"]}]},\"width\":\"100%\"}]}",
              "status": "generated"
            },
            "title": "PLAN OF CARE"
          }
        ],
        "status": "preliminary",
        "subject": {
          "reference": "Patient/ffffffff-9e5d-1176-ffff-ffffb3b88942"
        },
        "title": "Continuity of Care Document",
        "type": {
          "coding": [
            {
              "code": "34133-9",
              "system": "urn:oid:2.16.840.1.113883.6.1"
            }
          ]
        }
      }
    },
    {
      "request": {
        "method": "PUT",
        "url": "Location/fe1b2d7c0a6a0d96f2fb790db569c183"
      },
      "resource": {
        "address": {
          "city": "Chicago",
          "line": [
            "123 main street"
          ],
          "postalCode": "60629",
          "state": "IL",
          "use": "home"
        },
        "id": "fe1b2d7c0a6a0d96f2fb790db569c183",
        "identifier": [
          {
            "system": "urn:oid:google/reconciliation-stable-id",
            "value": "fe1b2d7c0a6a0d96f2fb790db569c183"
          }
        ],
        "meta": {
          "extension": [
            {
              "url": "urn:oid:google/reconciliation-timestamp",
              "valueInstant": "2016-10-03T18:27:10.000+00:00"
            }
          ],
          "tag": [
            {
              "code": "/",
              "system": "urn:oid:data-type/data-source"
            }
          ]
        },
        "name": "unknown",
        "resourceType": "Location"
      }
    },
    {
      "request": {
        "method": "PUT",
        "url": "Practitioner/f617a212ec5f183f1b3b3c55881f82c4"
      },
      "resource": {
        "id": "f617a212ec5f183f1b3b3c55881f82c4",
        "identifier": [
          {
            "system": "urn:oid:2.16.840.1.113883.4.6",
            "value": "1234123400"
          },
          {
            "system": "urn:oid:google/reconciliation-stable-id",
            "value": "ffffffff-b8d5-9fd6-ffff-ffffbc12dbb4"
          }
        ],
        "meta": {
          "extension": [
            {
              "url": "urn:oid:google/reconciliation-timestamp",
              "valueInstant": "2016-10-03T18:27:10.000+00:00"
            }
          ],
          "tag": [
            {
              "code": "/",
              "system": "urn:oid:data-type/data-source"
            }
          ]
        },
        "name": [
          {
            "family": "abc",
            "given": [
              "Provider"
            ],
            "use": "usual"
          }
        ],
        "resourceType": "Practitioner"
      }
    },
    {
      "request": {
        "method": "PUT",
        "url": "Organization/3a174777a4a13a82dfc400dc58492315"
      },
      "resource": {
        "active": true,
        "id": "3a174777a4a13a82dfc400dc58492315",
        "identifier": [
          {
            "system": "urn:oid:google/reconciliation-stable-id",
            "value": "3a174777a4a13a82dfc400dc58492315"
          }
        ],
        "meta": {
          "extension": [
            {
              "url": "urn:oid:google/reconciliation-timestamp",
              "valueInstant": "2016-10-03T18:27:10.000+00:00"
            }
          ],
          "tag": [
            {
              "code": "/",
              "system": "urn:oid:data-type/data-source"
            }
          ]
        },
        "name": "unknown",
        "resourceType": "Organization"
      }
    },
    {
      "request": {
        "method": "PUT",
        "url": "PractitionerRole/885243fbd5ac80964cf9cac26c7e0ac6"
      },
      "resource": {
        "active": true,
        "id": "885243fbd5ac80964cf9cac26c7e0ac6",
        "identifier": [
          {
            "system": "urn:oid:2.16.840.1.113883.4.6",
            "value": "1234123400"
          },
          {
            "system": "urn:oid:google/reconciliation-stable-id",
            "value": "00000000-31e9-f345-ffff-ffffb73ee369"
          }
        ],
        "location": [
          {
            "reference": "Location/fe1b2d7c0a6a0d96f2fb790db569c183"
          }
        ],
        "meta": {
          "extension": [
            {
              "url": "urn:oid:google/reconciliation-timestamp",
              "valueInstant": "2016-10-03T18:27:10.000+00:00"
            }
          ],
          "tag": [
            {
              "code": "/",
              "system": "urn:oid:data-type/data-source"
            }
          ]
        },
        "organization": {
          "reference": "Organization/3a174777a4a13a82dfc400dc58492315"
        },
        "practitioner": {
          "reference": "Practitioner/ffffffff-b8d5-9fd6-ffff-ffffbc12dbb4"
        },
        "resourceType": "PractitionerRole",
        "telecom": [
          {
            "system": "email",
            "value": "provider@abc.com"
          }
        ]
      }
    },
    {
      "request": {
        "method": "PUT",
        "url": "Organization/be52e46e426ea5d7cca016d41dae17c3"
      },
      "resource": {
        "active": true,
        "id": "be52e46e426ea5d7cca016d41dae17c3",
        "identifier": [
          {
            "system": "urn:oid:1.3.6.1.4.1.22812.3.2009316.3",
            "value": "3"
          },
          {
            "system": "urn:oid:google/reconciliation-stable-id",
            "value": "ffffffff-aaca-f867-0000-0000070c5774"
          }
        ],
        "meta": {
          "extension": [
            {
              "url": "urn:oid:google/reconciliation-timestamp",
              "valueInstant": "2016-10-03T18:27:10.000+00:00"
            }
          ],
          "tag": [
            {
              "code": "/",
              "system": "urn:oid:data-type/data-source"
            }
          ]
        },
        "name": "Primary Care's Partners Test",
        "resourceType": "Organization",
        "telecom": [
          {
            "system": "phone",
            "value": "+1-(676)857-6769"
          }
        ]
      }
    },
    {
      "request": {
        "method": "PUT",
        "url": "Practitioner/031daa1288f285c69c0cefba9c31e692"
      },
      "resource": {
        "id": "031daa1288f285c69c0cefba9c31e692",
        "identifier": [
          {
            "system": "urn:oid:1.3.6.1.4.1.22812.3.2009316.3",
            "value": "92698"
          },
          {
            "system": "urn:oid:2.16.840.1.113883.4.6",
            "value": "1234123400"
          },
          {
            "system": "urn:oid:google/reconciliation-stable-id",
            "value": "ffffffff-b8d5-9fd6-ffff-ffffbc12dbb4"
          }
        ],
        "meta": {
          "extension": [
            {
              "url": "urn:oid:google/reconciliation-timestamp",
              "valueInstant": "2016-10-03T18:27:10.000+00:00"
            }
          ],
          "tag": [
            {
              "code": "/",
              "system": "urn:oid:data-type/data-source"
            }
          ]
        },
        "name": [
          {
            "family": "abc",
            "given": [
              "Provider"
            ],
            "use": "usual"
          }
        ],
        "resourceType": "Practitioner"
      }
    },
    {
      "request": {
        "method": "PUT",
        "url": "Practitioner/1b60b39f43509e2f98c1a5f470271e7f"
      },
      "resource": {
        "id": "1b60b39f43509e2f98c1a5f470271e7f",
        "identifier": [
          {
            "system": "http://hl7.org/fhir/sid/us-npi",
            "value": "unknown"
          },
          {
            "system": "urn:oid:google/reconciliation-stable-id",
            "value": "ffffffff-c747-e698-0000-00004d95fa51"
          }
        ],
        "meta": {
          "extension": [
            {
              "url": "urn:oid:google/reconciliation-timestamp",
              "valueInstant": "2016-10-03T18:27:10.000+00:00"
            }
          ],
          "tag": [
            {
              "code": "/",
              "system": "urn:oid:data-type/data-source"
            }
          ]
        },
        "name": [
          {
            "family": "unknown"
          }
        ],
        "resourceType": "Practitioner"
      }
    },
    {
      "request": {
        "method": "PUT",
        "url": "Patient/d1e4c091e9e9d73b1106b0fecd557540"
      },
      "resource": {
        "address": [
          {
            "city": "Beaverton",
            "line": [
              "1357 Amber Drive"
            ],
            "postalCode": "97006",
            "state": "OR",
            "use": "home"
          }
        ],
        "birthDate": "1947-05-01",
        "communication": [
          {
            "language": {
              "coding": [
                {
                  "code": "en"
                }
              ]
            },
            "preferred": true
          }
        ],
        "contact": [
          {
            "address": {
              "city": "Beaverton",
              "line": [
                "123 main street"
              ],
              "postalCode": "97867",
              "state": "OR",
              "use": "home"
            },
            "name": {
              "family": "Betterhalf",
              "given": [
                "Boris"
              ],
              "use": "usual"
            },
            "relationship": [
              {
                "coding": [
                  {
                    "code": "POWATT",
                    "display": "Power of Attorney",
                    "system": "urn:oid:2.16.840.1.113883.5.111"
                  }
                ]
              }
            ],
            "telecom": [
              {
                "system": "phone",
                "value": "+1(555)555-2008"
              }
            ]
          }
        ],
        "extension": [
          {
            "extension": [
              {
                "url": "ombCategory",
                "valueCoding": {
                  "code": "2106-3",
                  "display": "White",
                  "system": "urn:oid:2.16.840.1.113883.6.238"
                }
              }
            ],
            "url": "http://hl7.org/fhir/us/core/StructureDefinition/us-core-race"
          },
          {
            "extension": [
              {
                "url": "ombCategory",
                "valueCoding": {
                  "code": "2135-2",
                  "display": "Hispanic or Latino",
                  "system": "urn:oid:2.16.840.1.113883.6.238"
                }
              }
            ],
            "url": "http://hl7.org/fhir/us/core/StructureDefinition/us-core-ethnicity"
          },
          {
            "url": "http://hl7.org/fhir/StructureDefinition/patient-religion",
            "valueCodeableConcept": {
              "coding": [
                {
                  "code": "1013",
                  "display": "Christian (non-Catholic, non-specific)",
                  "system": "urn:oid:2.16.840.1.113883.5.1076"
                }
              ]
            }
          },
          {
            "url": "http://hl7.org/fhir/StructureDefinition/patient-birthPlace",
            "valueAddress": {
              "city": "Beaverton",
              "country": "US",
              "line": [
                "4444 Home Street"
              ],
              "postalCode": "97867",
              "state": "OR"
            }
          }
        ],
        "gender": "female",
        "id": "d1e4c091e9e9d73b1106b0fecd557540",
        "identifier": [
          {
            "system": "urn:oid:1.3.6.1.4.1.22812.3.2009316.3",
            "value": "160920144139807"
          },
          {
            "system": "urn:oid:google/reconciliation-stable-id",
            "value": "ffffffff-9e5d-1176-ffff-ffffb3b88942"
          }
        ],
        "managingOrganization": {
          "reference": "Organization/ffffffff-aaca-f867-0000-0000070c5774"
        },
        "maritalStatus": {
          "coding": [
            {
              "code": "M",
              "display": "Married",
              "system": "urn:oid:2.16.840.1.113883.5.2"
            }
          ]
        },
        "meta": {
          "extension": [
            {
              "url": "urn:oid:google/reconciliation-timestamp",
              "valueInstant": "2016-10-03T18:27:10.000+00:00"
            }
          ],
          "tag": [
            {
              "code": "/",
              "system": "urn:oid:data-type/data-source"
            }
          ]
        },
        "name": [
          {
            "family": "Jones",
            "given": [
              "Myra"
            ],
            "use": "usual"
          }
        ],
        "resourceType": "Patient",
        "telecom": [
          {
            "system": "phone",
            "value": "+1(565)867-5309"
          }
        ]
      }
    },
    {
      "request": {
        "method": "PUT",
        "url": "PractitionerRole/9acb4d741d61874df94abd979a08c713"
      },
      "resource": {
        "active": true,
        "code": [
          {
            "coding": [
              {
                "code": "260000000X",
                "system": "urn:oid:2.16.840.1.113883.6.101"
              }
            ]
          }
        ],
        "id": "9acb4d741d61874df94abd979a08c713",
        "identifier": [
          {
            "system": "urn:oid:1.3.6.1.4.1.22812.3.2009316.3",
            "value": "92698"
          },
          {
            "system": "urn:oid:2.16.840.1.113883.4.6",
            "value": "1234123400"
          },
          {
            "system": "urn:oid:google/reconciliation-stable-id",
            "value": "00000000-31e9-f345-ffff-ffffb73ee369"
          }
        ],
        "location": [
          {
            "reference": "Location/fe1b2d7c0a6a0d96f2fb790db569c183"
          }
        ],
        "meta": {
          "extension": [
            {
              "url": "urn:oid:google/reconciliation-timestamp",
              "valueInstant": "2016-10-03T18:27:10.000+00:00"
            }
          ],
          "tag": [
            {
              "code": "/",
              "system": "urn:oid:data-type/data-source"
            }
          ]
        },
        "organization": {
          "reference": "Organization/3a174777a4a13a82dfc400dc58492315"
        },
        "practitioner": {
          "reference": "Practitioner/ffffffff-b8d5-9fd6-ffff-ffffbc12dbb4"
        },
        "resourceType": "PractitionerRole",
        "telecom": [
          {
            "system": "email",
            "value": "provider@allsripts.com"
          }
        ]
      }
    },
    {
      "request": {
        "method": "PUT",
        "url": "PractitionerRole/cb282db6502b11f42d4e829bfec4c84e"
      },
      "resource": {
        "active": true,
        "id": "cb282db6502b11f42d4e829bfec4c84e",
        "identifier": [
          {
            "system": "urn:oid:1.3.6.1.4.1.22812.3.2009316.3.3.3",
            "value": "3"
          },
          {
            "system": "urn:oid:google/reconciliation-stable-id",
            "value": "ffffffff-9f83-48fd-0000-00003faffa1a"
          }
        ],
        "location": [
          {
            "reference": "Location/fe1b2d7c0a6a0d96f2fb790db569c183"
          }
        ],
        "meta": {
          "extension": [
            {
              "url": "urn:oid:google/reconciliation-timestamp",
              "valueInstant": "2016-10-03T18:27:10.000+00:00"
            }
          ],
          "tag": [
            {
              "code": "/",
              "system": "urn:oid:data-type/data-source"
            }
          ]
        },
        "organization": {
          "reference": "Organization/ffffffff-aaca-f867-0000-0000070c5774"
        },
        "practitioner": {
          "reference": "Practitioner/ffffffff-c747-e698-0000-00004d95fa51"
        },
        "resourceType": "PractitionerRole",
        "telecom": [
          {
            "system": "phone",
            "value": "+1-(676)857-6769"
          }
        ]
      }
    },
    {
      "request": {
        "method": "PUT",
        "url": "Observation/56b4bab826f439bfdca1a968833b6c57"
      },
      "resource": {
        "category": [
          {
            "coding": [
              {
                "code": "vital-signs",
                "system": "http://terminology.hl7.org/CodeSystem/observation-category"
              }
            ]
          }
        ],
        "code": {
          "coding": [
            {
              "code": "8867-4",
              "display": "HEART RATE",
              "system": "urn:oid:2.16.840.1.113883.6.1"
            }
          ]
        },
        "component": [
          {
            "code": {
              "coding": [
                {
                  "code": "8867-4",
                  "display": "HEART RATE",
                  "system": "urn:oid:2.16.840.1.113883.6.1"
                }
              ]
            },
            "valueQuantity": {
              "unit": "/min",
              "value": 80
            }
          }
        ],
        "effectiveDateTime": "2014-05-21T01:36:05+00:00",
        "id": "56b4bab826f439bfdca1a968833b6c57",
        "identifier": [
          {
            "system": "urn:oid:2.16.840.1.113883.3.42.126.100001.19",
            "value": "216881330410151584"
          },
          {
            "system": "urn:oid:google/reconciliation-stable-id",
            "value": "00000000-3c9b-c140-0000-0000446b8453"
          }
        ],
        "meta": {
          "extension": [
            {
              "url": "urn:oid:google/reconciliation-timestamp",
              "valueInstant": "2014-05-21T01:36:05+00:00"
            }
          ],
          "tag": [
            {
              "code": "/",
              "system": "urn:oid:data-type/data-source"
            }
          ]
        },
        "resourceType": "Observation",
        "status": "final",
        "subject": {
          "reference": "Patient/ffffffff-9e5d-1176-ffff-ffffb3b88942"
        }
      }
    },
    {
      "request": {
        "method": "PUT",
        "url": "Practitioner/06114823015ab94e3b2f8a7c1a7e9ecc"
      },
      "resource": {
        "id": "06114823015ab94e3b2f8a7c1a7e9ecc",
        "identifier": [
          {
            "system": "urn:oid:2.16.840.1.113883.4.6",
            "value": "99999999"
          },
          {
            "system": "urn:oid:google/reconciliation-stable-id",
            "value": "00000000-7cba-eb40-0000-00001bac6207"
          }
        ],
        "meta": {
          "extension": [
            {
              "url": "urn:oid:google/reconciliation-timestamp",
              "valueInstant": "2014-06-06T15:32:00+00:00"
            }
          ],
          "tag": [
            {
              "code": "/",
              "system": "urn:oid:data-type/data-source"
            }
          ]
        },
        "name": [
          {
            "family": "Seven",
            "given": [
              "Henry"
            ],
            "use": "usual"
          }
        ],
        "resourceType": "Practitioner"
      }
    },
    {
      "request": {
        "method": "PUT",
        "url": "PractitionerRole/36283f8162a527ca79c288671d0f440d"
      },
      "resource": {
        "active": true,
        "code": [
          {
            "coding": [
              {
                "code": "200000000X",
                "display": "Allopathic and Osteopathic Physicians",
                "system": "urn:oid:2.16.840.1.113883.6.101"
              }
            ]
          }
        ],
        "id": "36283f8162a527ca79c288671d0f440d",
        "identifier": [
          {
            "system": "urn:oid:2.16.840.1.113883.4.6",
            "value": "99999999"
          },
          {
            "system": "urn:oid:google/reconciliation-stable-id",
            "value": "ffffffff-ae30-24e9-ffff-ffffcf589c8d"
          }
        ],
        "meta": {
          "extension": [
            {
              "url": "urn:oid:google/reconciliation-timestamp",
              "valueInstant": "2014-06-06T15:32:00+00:00"
            }
          ],
          "tag": [
            {
              "code": "/",
              "system": "urn:oid:data-type/data-source"
            }
          ]
        },
        "organization": {
          "reference": "Organization/3a174777a4a13a82dfc400dc58492315"
        },
        "practitioner": {
          "reference": "Practitioner/00000000-7cba-eb40-0000-00001bac6207"
        },
        "resourceType": "PractitionerRole",
        "telecom": [
          {
            "system": "phone",
            "value": "+1(555)555-1002"
          }
        ]
      }
    },
    {
      "request": {
        "method": "PUT",
        "url": "Observation/9d47d6a0a45e36ded06c0f9d32689e87"
      },
      "resource": {
        "category": [
          {
            "coding": [
              {
                "code": "social-history",
                "system": "http://terminology.hl7.org/CodeSystem/observation-category"
              }
            ]
          }
        ],
        "code": {
          "coding": [
            {
              "code": "72166-2",
              "display": "Tobacco smoking status NHIS",
              "system": "urn:oid:2.16.840.1.113883.6.1"
            }
          ]
        },
        "component": [
          {
            "code": {
              "coding": [
                {
                  "code": "72166-2",
                  "display": "Tobacco smoking status NHIS",
                  "system": "urn:oid:2.16.840.1.113883.6.1"
                }
              ]
            },
            "valueCodeableConcept": {
              "coding": [
                {
                  "code": "449868002",
                  "display": "Current every day smoker",
                  "system": "urn:oid:2.16.840.1.113883.6.96"
                }
              ]
            }
          }
        ],
        "effectiveDateTime": "2014-06-06T15:32:00+00:00",
        "id": "9d47d6a0a45e36ded06c0f9d32689e87",
        "identifier": [
          {
            "system": "urn:oid:2.16.840.1.113883.19",
            "value": "123456789"
          },
          {
            "system": "urn:oid:google/reconciliation-stable-id",
            "value": "ffffffff-8648-9c4a-0000-0000497b11be"
          }
        ],
        "issued": "2014-06-06T15:32:00.000+00:00",
        "meta": {
          "extension": [
            {
              "url": "urn:oid:google/reconciliation-timestamp",
              "valueInstant": "2014-06-06T15:32:00+00:00"
            }
          ],
          "tag": [
            {
              "code": "/",
              "system": "urn:oid:data-type/data-source"
            }
          ]
        },
        "performer": [
          {
            "reference": "PractitionerRole/ffffffff-ae30-24e9-ffff-ffffcf589c8d"
          }
        ],
        "resourceType": "Observation",
        "status": "final",
        "subject": {
          "reference": "Patient/ffffffff-9e5d-1176-ffff-ffffb3b88942"
        }
      }
    },
    {
      "request": {
        "method": "PUT",
        "url": "Provenance/da7c545f14e477aaa1e0fc664988685e"
      },
      "resource": {
        "agent": [
          {
            "type": {
              "coding": [
                {
                  "code": "author",
                  "system": "http://terminology.hl7.org/CodeSystem/provenance-participant-type"
                }
              ]
            },
            "who": {
              "reference": "PractitionerRole/ffffffff-ae30-24e9-ffff-ffffcf589c8d"
            }
          }
        ],
        "id": "da7c545f14e477aaa1e0fc664988685e",
        "meta": {
          "extension": [
            {
              "url": "urn:oid:google/reconciliation-timestamp",
              "valueInstant": "2014-06-06T15:32:00+00:00"
            }
          ],
          "tag": [
            {
              "code": "/",
              "system": "urn:oid:data-type/data-source"
            },
            {
              "code": "active",
              "system": "urn:oid:/bypass-reconciliation"
            }
          ]
        },
        "recorded": "2014-06-06T15:32:00.000+00:00",
        "resourceType": "Provenance",
        "target": [
          {
            "reference": "Observation/ffffffff-8648-9c4a-0000-0000497b11be"
          }
        ]
      }
    },
    {
      "request": {
        "method": "PUT",
        "url": "Practitioner/b197eb28e444bec9157712f2f0f0581e"
      },
      "resource": {
        "id": "b197eb28e444bec9157712f2f0f0581e",
        "identifier": [
          {
            "system": "urn:oid:2.16.840.1.113883.4.6",
            "value": "12345678910"
          },
          {
            "system": "urn:oid:google/reconciliation-stable-id",
            "value": "00000000-7f3a-c27b-0000-00006a667a39"
          }
        ],
        "meta": {
          "extension": [
            {
              "url": "urn:oid:google/reconciliation-timestamp",
              "valueInstant": "2012-08-15T18:00:00+00:00"
            }
          ],
          "tag": [
            {
              "code": "/",
              "system": "urn:oid:data-type/data-source"
            }
          ]
        },
        "name": [
          {
            "family": "Khan",
            "given": [
              "Samir"
            ],
            "use": "usual"
          }
        ],
        "resourceType": "Practitioner"
      }
    },
    {
      "request": {
        "method": "PUT",
        "url": "PractitionerRole/1de9f31c5a759accf04324eadf10b473"
      },
      "resource": {
        "active": true,
        "code": [
          {
            "coding": [
              {
                "code": "207R00000X",
                "display": "Internal Medicine",
                "system": "urn:oid:2.16.840.1.113883.6.101"
              }
            ]
          }
        ],
        "id": "1de9f31c5a759accf04324eadf10b473",
        "identifier": [
          {
            "system": "urn:oid:2.16.840.1.113883.4.6",
            "value": "12345678910"
          },
          {
            "system": "urn:oid:google/reconciliation-stable-id",
            "value": "ffffffff-fdb1-44ca-ffff-ffff811d6618"
          }
        ],
        "meta": {
          "extension": [
            {
              "url": "urn:oid:google/reconciliation-timestamp",
              "valueInstant": "2012-08-15T18:00:00+00:00"
            }
          ],
          "tag": [
            {
              "code": "/",
              "system": "urn:oid:data-type/data-source"
            }
          ]
        },
        "organization": {
          "reference": "Organization/3a174777a4a13a82dfc400dc58492315"
        },
        "practitioner": {
          "reference": "Practitioner/00000000-7f3a-c27b-0000-00006a667a39"
        },
        "resourceType": "PractitionerRole"
      }
    },
    {
      "request": {
        "method": "PUT",
        "url": "Encounter/8495d700e83419090ba117378796fb89"
      },
      "resource": {
        "class": {
          "code": "99213",
          "display": "Office/outpatient established low mdm 20-29 min",
          "system": "urn:oid:2.16.840.1.113883.6.12"
        },
        "id": "8495d700e83419090ba117378796fb89",
        "identifier": [
          {
            "system": "urn:oid:google/reconciliation-stable-id",
            "value": "8495d700e83419090ba117378796fb89"
          }
        ],
        "meta": {
          "extension": [
            {
              "url": "urn:oid:google/reconciliation-timestamp",
              "valueInstant": "2012-08-15T18:00:00+00:00"
            }
          ],
          "tag": [
            {
              "code": "/",
              "system": "urn:oid:data-type/data-source"
            }
          ]
        },
        "participant": [
          {
            "individual": {
              "reference": "PractitionerRole/ffffffff-fdb1-44ca-ffff-ffff811d6618"
            }
          }
        ],
        "resourceType": "Encounter",
        "status": "unknown",
        "subject": {
          "reference": "Patient/ffffffff-9e5d-1176-ffff-ffffb3b88942"
        },
        "type": [
          {
            "coding": [
              {
                "code": "99213",
                "display": "Office/outpatient established low mdm 20-29 min",
                "system": "urn:oid:2.16.840.1.113883.6.12"
              }
            ]
          }
        ]
      }
    },
    {
      "request": {
        "method": "PUT",
        "url": "Practitioner/3304028e5f20a7308b1e6236a33b7d69"
      },
      "resource": {
        "id": "3304028e5f20a7308b1e6236a33b7d69",
        "identifier": [
          {
            "system": "urn:oid:2.16.840.1.113883.4.6",
            "value": "99999999"
          },
          {
            "system": "urn:oid:google/reconciliation-stable-id",
            "value": "00000000-7cba-eb40-0000-00001bac6207"
          }
        ],
        "meta": {
          "extension": [
            {
              "url": "urn:oid:google/reconciliation-timestamp",
              "valueInstant": "2016-10-03T18:27:10.000+00:00"
            }
          ],
          "tag": [
            {
              "code": "/",
              "system": "urn:oid:data-type/data-source"
            }
          ]
        },
        "name": [
          {
            "family": "SevenObs",
            "given": [
              "Henry"
            ],
            "use": "usual"
          }
        ],
        "resourceType": "Practitioner"
      }
    },
    {
      "request": {
        "method": "PUT",
        "url": "PractitionerRole/d9ec107c137e9561294e7d439d15ab7e"
      },
      "resource": {
        "active": true,
        "code": [
          {
            "coding": [
              {
                "code": "207Q00000X",
                "display": "Family Medicine",
                "system": "urn:oid:2.16.840.1.113883.6.101"
              }
            ]
          }
        ],
        "id": "d9ec107c137e9561294e7d439d15ab7e",
        "identifier": [
          {
            "system": "urn:oid:2.16.840.1.113883.4.6",
            "value": "99999999"
          },
          {
            "system": "urn:oid:google/reconciliation-stable-id",
            "value": "ffffffff-ae30-24e9-ffff-ffffcf589c8d"
          }
        ],
        "meta": {
          "extension": [
            {
              "url": "urn:oid:google/reconciliation-timestamp",
              "valueInstant": "2016-10-03T18:27:10.000+00:00"
            }
          ],
          "tag": [
            {
              "code": "/",
              "system": "urn:oid:data-type/data-source"
            }
          ]
        },
        "organization": {
          "reference": "Organization/3a174777a4a13a82dfc400dc58492315"
        },
        "practitioner": {
          "reference": "Practitioner/00000000-7cba-eb40-0000-00001bac6207"
        },
        "resourceType": "PractitionerRole",
        "telecom": [
          {
            "system": "phone",
            "value": "555-555-1002"
          }
        ]
      }
    },
    {
      "request": {
        "method": "PUT",
        "url": "Location/84481a9d0e4de82ee74ea2fcc0999901"
      },
      "resource": {
        "address": {
          "city": "Silver Spring",
          "country": "US",
          "line": [
            "6666 StreetName St."
          ],
          "postalCode": "20901",
          "state": "MD"
        },
        "id": "84481a9d0e4de82ee74ea2fcc0999901",
        "identifier": [
          {
            "system": "urn:oid:google/reconciliation-stable-id",
            "value": "84481a9d0e4de82ee74ea2fcc0999901"
          }
        ],
        "meta": {
          "extension": [
            {
              "url": "urn:oid:google/reconciliation-timestamp",
              "valueInstant": "2016-10-03T18:27:10.000+00:00"
            }
          ],
          "tag": [
            {
              "code": "/",
              "system": "urn:oid:data-type/data-source"
            }
          ]
        },
        "name": "unknown",
        "resourceType": "Location"
      }
    },
    {
      "request": {
        "method": "PUT",
        "url": "Practitioner/cf38b4ff8101d206d59e8de8f1edc41e"
      },
      "resource": {
        "id": "cf38b4ff8101d206d59e8de8f1edc41e",
        "identifier": [
          {
            "system": "urn:oid:2.16.840.1.113883.4.6",
            "value": "66666"
          },
          {
            "system": "urn:oid:google/reconciliation-stable-id",
            "value": "ffffffff-e463-472e-0000-0000168434f6"
          }
        ],
        "meta": {
          "extension": [
            {
              "url": "urn:oid:google/reconciliation-timestamp",
              "valueInstant": "2016-10-03T18:27:10.000+00:00"
            }
          ],
          "tag": [
            {
              "code": "/",
              "system": "urn:oid:data-type/data-source"
            }
          ]
        },
        "name": [
          {
            "family": "Sixer",
            "given": [
              "Heartly"
            ],
            "suffix": [
              "MD"
            ],
            "use": "usual"
          }
        ],
        "resourceType": "Practitioner"
      }
    },
    {
      "request": {
        "method": "PUT",
        "url": "PractitionerRole/2a4e02303a0bbffbf04e31aeebff972f"
      },
      "resource": {
        "active": true,
        "code": [
          {
            "coding": [
              {
                "code": "207RC0000X",
                "display": "Allopathic & Osteopathic Physicians; Internal Medicine, Cardiovascular Disease",
                "system": "urn:oid:2.16.840.1.113883.6.101"
              }
            ]
          }
        ],
        "id": "2a4e02303a0bbffbf04e31aeebff972f",
        "identifier": [
          {
            "system": "urn:oid:2.16.840.1.113883.4.6",
            "value": "66666"
          },
          {
            "system": "urn:oid:google/reconciliation-stable-id",
            "value": "00000000-5908-9911-0000-00004f1bcf38"
          }
        ],
        "location": [
          {
            "reference": "Location/84481a9d0e4de82ee74ea2fcc0999901"
          }
        ],
        "meta": {
          "extension": [
            {
              "url": "urn:oid:google/reconciliation-timestamp",
              "valueInstant": "2016-10-03T18:27:10.000+00:00"
            }
          ],
          "tag": [
            {
              "code": "/",
              "system": "urn:oid:data-type/data-source"
            }
          ]
        },
        "organization": {
          "reference": "Organization/3a174777a4a13a82dfc400dc58492315"
        },
        "practitioner": {
          "reference": "Practitioner/ffffffff-e463-472e-0000-0000168434f6"
        },
        "resourceType": "PractitionerRole",
        "telecom": [
          {
            "system": "phone",
            "value": "+1(301)666-6666"
          }
        ]
      }
    },
    {
      "request": {
        "method": "PUT",
        "url": "Condition/31f8890d039ae1f7320dd936af91c697"
      },
      "resource": {
        "category": [
          {
            "coding": [
              {
                "code": "11450-4",
                "system": "urn:oid:2.16.840.1.113883.6.1"
              }
            ]
          }
        ],
        "clinicalStatus": {
          "coding": [
            {
              "code": "active",
              "system": "http://terminology.hl7.org/CodeSystem/condition-clinical"
            }
          ]
        },
        "code": {
          "coding": [
            {
              "code": "233604007",
              "display": "Pneumonia",
              "system": "urn:oid:2.16.840.1.113883.6.96"
            }
          ]
        },
        "id": "31f8890d039ae1f7320dd936af91c697",
        "identifier": [
          {
            "system": "urn:oid:1.3.6.1.4.1.22812.3.2009316.3.4.1.2.1",
            "value": "545069300001"
          },
          {
            "system": "urn:oid:1.3.6.1.4.1.22812.3.2009316.3.4.1.2.1",
            "value": "545069300001"
          },
          {
            "system": "urn:oid:google/reconciliation-stable-id",
            "value": "00000000-782f-65e9-0000-00000340a9f0"
          }
        ],
        "meta": {
          "extension": [
            {
              "url": "urn:oid:google/reconciliation-timestamp",
              "valueInstant": "2016-10-03T18:27:10.000+00:00"
            }
          ],
          "tag": [
            {
              "code": "/",
              "system": "urn:oid:data-type/data-source"
            }
          ]
        },
        "onsetDateTime": "2012-08-06T00:00:00+00:00",
        "recordedDate": "2010-08-15T00:00:00+00:00",
        "recorder": {
          "reference": "PractitionerRole/ffffffff-ae30-24e9-ffff-ffffcf589c8d"
        },
        "resourceType": "Condition",
        "subject": {
          "reference": "Patient/ffffffff-9e5d-1176-ffff-ffffb3b88942"
        }
      }
    },
    {
      "request": {
        "method": "PUT",
        "url": "Condition/05dc70f780383001c6509e732f88b440"
      },
      "resource": {
        "category": [
          {
            "coding": [
              {
                "code": "11450-4",
                "system": "urn:oid:2.16.840.1.113883.6.1"
              }
            ]
          }
        ],
        "clinicalStatus": {
          "coding": [
            {
              "code": "active",
              "system": "http://terminology.hl7.org/CodeSystem/condition-clinical"
            }
          ]
        },
        "code": {
          "coding": [
            {
              "code": "195967001",
              "system": "urn:oid:2.16.840.1.113883.6.96"
            }
          ]
        },
        "id": "05dc70f780383001c6509e732f88b440",
        "identifier": [
          {
            "system": "urn:oid:1.3.6.1.4.1.22812.3.2009316.3.4.1.2.1",
            "value": "545077400017"
          },
          {
            "system": "urn:oid:1.3.6.1.4.1.22812.3.2009316.3.4.1.2.1",
            "value": "545077400019"
          },
          {
            "system": "urn:oid:google/reconciliation-stable-id",
            "value": "ffffffff-91c3-853d-ffff-ffff9a7633de"
          }
        ],
        "meta": {
          "extension": [
            {
              "url": "urn:oid:google/reconciliation-timestamp",
              "valueInstant": "2016-10-03T18:27:10.000+00:00"
            }
          ],
          "tag": [
            {
              "code": "/",
              "system": "urn:oid:data-type/data-source"
            }
          ]
        },
        "onsetDateTime": "2010-08-15T00:00:00+00:00",
        "resourceType": "Condition",
        "subject": {
          "reference": "Patient/ffffffff-9e5d-1176-ffff-ffffb3b88942"
        }
      }
    },
    {
      "request": {
        "method": "PUT",
        "url": "Condition/b5b9b52e2dfe689b5c88154b60c0f92c"
      },
      "resource": {
        "category": [
          {
            "coding": [
              {
                "code": "11450-4",
                "system": "urn:oid:2.16.840.1.113883.6.1"
              }
            ]
          }
        ],
        "clinicalStatus": {
          "coding": [
            {
              "code": "active",
              "system": "http://terminology.hl7.org/CodeSystem/condition-clinical"
            }
          ]
        },
        "code": {
          "coding": [
            {
              "code": "56018004",
              "display": "wheezing",
              "system": "urn:oid:2.16.840.1.113883.6.96"
            }
          ]
        },
        "id": "b5b9b52e2dfe689b5c88154b60c0f92c",
        "identifier": [
          {
            "system": "urn:oid:1.3.6.1.4.1.22812.3.99930.3.4.1.3",
            "value": "44"
          },
          {
            "system": "urn:oid:google/reconciliation-stable-id",
            "value": "ffffffff-a50a-9a08-0000-000031c48152"
          }
        ],
        "meta": {
          "extension": [
            {
              "url": "urn:oid:google/reconciliation-timestamp",
              "valueInstant": "2016-10-03T18:27:10.000+00:00"
            }
          ],
          "tag": [
            {
              "code": "/",
              "system": "urn:oid:data-type/data-source"
            }
          ]
        },
        "onsetDateTime": "2012-08-15T00:00:00+00:00",
        "resourceType": "Condition",
        "subject": {
          "reference": "Patient/ffffffff-9e5d-1176-ffff-ffffb3b88942"
        }
      }
    },
    {
      "request": {
        "method": "PUT",
        "url": "Condition/77d161c6b1c531d68fc9c0480e7e3a55"
      },
      "resource": {
        "category": [
          {
            "coding": [
              {
                "code": "11450-4",
                "system": "urn:oid:2.16.840.1.113883.6.1"
              }
            ]
          }
        ],
        "clinicalStatus": {
          "coding": [
            {
              "code": "active",
              "system": "http://terminology.hl7.org/CodeSystem/condition-clinical"
            }
          ]
        },
        "code": {
          "coding": [
            {
              "code": "363746003",
              "display": "Acute pharyngitis",
              "system": "urn:oid:2.16.840.1.113883.6.96"
            }
          ]
        },
        "id": "77d161c6b1c531d68fc9c0480e7e3a55",
        "identifier": [
          {
            "system": "urn:oid:1.3.6.1.4.1.22812.4.111.0.4.1.2.1",
            "value": "10241108"
          },
          {
            "system": "urn:oid:google/reconciliation-stable-id",
            "value": "ffffffff-c902-b799-ffff-ffffdce6b5fd"
          }
        ],
        "meta": {
          "extension": [
            {
              "url": "urn:oid:google/reconciliation-timestamp",
              "valueInstant": "2016-10-03T18:27:10.000+00:00"
            }
          ],
          "tag": [
            {
              "code": "/",
              "system": "urn:oid:data-type/data-source"
            }
          ]
        },
        "onsetDateTime": "2014-04-02T00:00:00+00:00",
        "recordedDate": "2014-04-07T00:00:00+00:00",
        "recorder": {
          "reference": "PractitionerRole/00000000-5908-9911-0000-00004f1bcf38"
        },
        "resourceType": "Condition",
        "subject": {
          "reference": "Patient/ffffffff-9e5d-1176-ffff-ffffb3b88942"
        }
      }
    },
    {
      "request": {
        "method": "PUT",
        "url": "Condition/41daaa7c1ec9d09477cf122b4a9ab0d9"
      },
      "resource": {
        "category": [
          {
            "coding": [
              {
                "code": "11450-4",
                "system": "urn:oid:2.16.840.1.113883.6.1"
              }
            ]
          }
        ],
        "clinicalStatus": {
          "coding": [
            {
              "code": "active",
              "system": "http://terminology.hl7.org/CodeSystem/condition-clinical"
            }
          ]
        },
        "code": {
          "coding": [
            {
              "code": "445281000124101",
              "display": "Nutrition impaired due to limited access to healthful foods (finding)",
              "system": "urn:oid:2.16.840.1.113883.6.96"
            }
          ]
        },
        "id": "41daaa7c1ec9d09477cf122b4a9ab0d9",
        "identifier": [
          {
            "system": "urn:oid:1.2.840.114350.1.13.6289.1.7.2.768076",
            "value": "68993"
          },
          {
            "system": "urn:oid:093A5380-00CE-11E6-B4C5-0050568B000B",
            "value": "1.1"
          },
          {
            "system": "urn:oid:google/reconciliation-stable-id",
            "value": "00000000-26c0-d25f-ffff-ffffeb6296f8"
          }
        ],
        "meta": {
          "extension": [
            {
              "url": "urn:oid:google/reconciliation-timestamp",
              "valueInstant": "2016-10-03T18:27:10.000+00:00"
            }
          ],
          "tag": [
            {
              "code": "/",
              "system": "urn:oid:data-type/data-source"
            }
          ]
        },
        "onsetDateTime": "2010-09-09T00:00:00+00:00",
        "recordedDate": "2010-01-01T00:00:00+00:00",
        "resourceType": "Condition",
        "subject": {
          "reference": "Patient/ffffffff-9e5d-1176-ffff-ffffb3b88942"
        }
      }
    },
    {
      "request": {
        "method": "PUT",
        "url": "Condition/a1308bffbd2719e2db3974c0c0c53008"
      },
      "resource": {
        "category": [
          {
            "coding": [
              {
                "code": "11450-4",
                "system": "urn:oid:2.16.840.1.113883.6.1"
              }
            ]
          }
        ],
        "clinicalStatus": {
          "coding": [
            {
              "code": "active",
              "system": "http://terminology.hl7.org/CodeSystem/condition-clinical"
            }
          ]
        },
        "code": {
          "coding": [
            {
              "code": "414916001",
              "display": "Obesity",
              "system": "urn:oid:2.16.840.1.113883.6.96"
            }
          ]
        },
        "id": "a1308bffbd2719e2db3974c0c0c53008",
        "identifier": [
          {
            "system": "urn:oid:google/reconciliation-stable-id",
            "value": "00000000-1f10-ed44-0000-00003bb3ac8a"
          }
        ],
        "meta": {
          "extension": [
            {
              "url": "urn:oid:google/reconciliation-timestamp",
              "valueInstant": "2016-10-03T18:27:10.000+00:00"
            }
          ],
          "tag": [
            {
              "code": "/",
              "system": "urn:oid:data-type/data-source"
            }
          ]
        },
        "onsetDateTime": "2003-01-01T00:00:00+00:00",
        "resourceType": "Condition",
        "subject": {
          "reference": "Patient/ffffffff-9e5d-1176-ffff-ffffb3b88942"
        }
      }
    },
    {
      "request": {
        "method": "PUT",
        "url": "Provenance/c6d2ea988d2a80bcd35bd28c1bfcb579"
      },
      "resource": {
        "agent": [
          {
            "type": {
              "coding": [
                {
                  "code": "author",
                  "system": "http://terminology.hl7.org/CodeSystem/provenance-participant-type"
                }
              ]
            },
            "who": {
              "reference": "PractitionerRole/ffffffff-ae30-24e9-ffff-ffffcf589c8d"
            }
          },
          {
            "type": {
              "coding": [
                {
                  "code": "author",
                  "system": "http://terminology.hl7.org/CodeSystem/provenance-participant-type"
                }
              ]
            },
            "who": {
              "reference": "PractitionerRole/00000000-5908-9911-0000-00004f1bcf38"
            }
          }
        ],
        "id": "c6d2ea988d2a80bcd35bd28c1bfcb579",
        "meta": {
          "extension": [
            {
              "url": "urn:oid:google/reconciliation-timestamp",
              "valueInstant": "2016-10-03T18:27:10.000+00:00"
            }
          ],
          "tag": [
            {
              "code": "/",
              "system": "urn:oid:data-type/data-source"
            },
            {
              "code": "active",
              "system": "urn:oid:/bypass-reconciliation"
            }
          ]
        },
        "recorded": "2010-08-15T00:00:00.000+00:00",
        "resourceType": "Provenance",
        "target": [
          {
            "reference": "Condition/00000000-782f-65e9-0000-00000340a9f0"
          },
          {
            "reference": "Condition/ffffffff-91c3-853d-ffff-ffff9a7633de"
          },
          {
            "reference": "Condition/ffffffff-a50a-9a08-0000-000031c48152"
          },
          {
            "reference": "Condition/ffffffff-c902-b799-ffff-ffffdce6b5fd"
          },
          {
            "reference": "Condition/00000000-26c0-d25f-ffff-ffffeb6296f8"
          },
          {
            "reference": "Condition/00000000-1f10-ed44-0000-00003bb3ac8a"
          }
        ]
      }
    },
    {
      "request": {
        "method": "PUT",
        "url": "Location/76651a54fcce59c8e7c16e9ea7770171"
      },
      "resource": {
        "address": {
          "city": "Ann Arbor",
          "country": "US",
          "line": [
            "1021 Health Drive"
          ],
          "postalCode": "99099",
          "state": "MI"
        },
        "id": "76651a54fcce59c8e7c16e9ea7770171",
        "identifier": [
          {
            "system": "urn:oid:google/reconciliation-stable-id",
            "value": "76651a54fcce59c8e7c16e9ea7770171"
          }
        ],
        "meta": {
          "extension": [
            {
              "url": "urn:oid:google/reconciliation-timestamp",
              "valueInstant": "2012-08-16T00:00:00+00:00"
            }
          ],
          "tag": [
            {
              "code": "/",
              "system": "urn:oid:data-type/data-source"
            }
          ]
        },
        "name": "unknown",
        "resourceType": "Location"
      }
    },
    {
      "request": {
        "method": "PUT",
        "url": "Practitioner/539b1fcace1fbd42bc6cb0cea1e3ca6a"
      },
      "resource": {
        "id": "539b1fcace1fbd42bc6cb0cea1e3ca6a",
        "identifier": [
          {
            "system": "urn:oid:2.16.840.1.113883.19.5.9999.456",
            "value": "2981824"
          },
          {
            "system": "urn:oid:google/reconciliation-stable-id",
            "value": "00000000-69ca-487f-ffff-ffffe2f9ba69"
          }
        ],
        "meta": {
          "extension": [
            {
              "url": "urn:oid:google/reconciliation-timestamp",
              "valueInstant": "2012-08-16T00:00:00+00:00"
            }
          ],
          "tag": [
            {
              "code": "/",
              "system": "urn:oid:data-type/data-source"
            }
          ]
        },
        "name": [
          {
            "family": "Assigned",
            "given": [
              "Amanda"
            ],
            "use": "usual"
          }
        ],
        "resourceType": "Practitioner"
      }
    },
    {
      "request": {
        "method": "PUT",
        "url": "Organization/b3fae4310add2b4dcc69d8fec8a7430d"
      },
      "resource": {
        "active": true,
        "address": [
          {
            "city": "Ann Arbor",
            "country": "US",
            "line": [
              "1021 Health Drive"
            ],
            "postalCode": "99099",
            "state": "MI"
          }
        ],
        "id": "b3fae4310add2b4dcc69d8fec8a7430d",
        "identifier": [
          {
            "system": "urn:oid:google/reconciliation-stable-id",
            "value": "00000000-4966-e50f-ffff-ffff95c6e696"
          }
        ],
        "meta": {
          "extension": [
            {
              "url": "urn:oid:google/reconciliation-timestamp",
              "valueInstant": "2012-08-16T00:00:00+00:00"
            }
          ],
          "tag": [
            {
              "code": "/",
              "system": "urn:oid:data-type/data-source"
            }
          ]
        },
        "name": "Good Health Clinic",
        "resourceType": "Organization",
        "telecom": [
          {
            "system": "phone",
            "value": "555-555-1002"
          }
        ]
      }
    },
    {
      "request": {
        "method": "PUT",
        "url": "PractitionerRole/3e5c675b711dadfa7810472fef847635"
      },
      "resource": {
        "active": true,
        "id": "3e5c675b711dadfa7810472fef847635",
        "identifier": [
          {
            "system": "urn:oid:2.16.840.1.113883.19.5.9999.456",
            "value": "2981824"
          },
          {
            "system": "urn:oid:google/reconciliation-stable-id",
            "value": "ffffffff-9fe7-0837-0000-00001c9dfa04"
          }
        ],
        "location": [
          {
            "reference": "Location/76651a54fcce59c8e7c16e9ea7770171"
          }
        ],
        "meta": {
          "extension": [
            {
              "url": "urn:oid:google/reconciliation-timestamp",
              "valueInstant": "2012-08-16T00:00:00+00:00"
            }
          ],
          "tag": [
            {
              "code": "/",
              "system": "urn:oid:data-type/data-source"
            }
          ]
        },
        "organization": {
          "reference": "Organization/00000000-4966-e50f-ffff-ffff95c6e696"
        },
        "practitioner": {
          "reference": "Practitioner/00000000-69ca-487f-ffff-ffffe2f9ba69"
        },
        "resourceType": "PractitionerRole",
        "telecom": [
          {
            "system": "phone",
            "value": "+1(555)555-1002"
          }
        ]
      }
    },
    {
      "request": {
        "method": "PUT",
        "url": "Observation/8e1519904bcd88fe0d18d6d17b47b859"
      },
      "resource": {
        "category": [
          {
            "coding": [
              {
                "code": "laboratory",
                "system": "http://terminology.hl7.org/CodeSystem/observation-category"
              }
            ]
          }
        ],
        "code": {
          "coding": [
            {
              "code": "55607006",
              "display": "Problem",
              "system": "urn:oid:2.16.840.1.113883.6.96"
            }
          ]
        },
        "component": [
          {
            "code": {
              "coding": [
                {
                  "code": "55607006",
                  "display": "Problem",
                  "system": "urn:oid:2.16.840.1.113883.6.96"
                }
              ]
            },
            "valueCodeableConcept": {
              "coding": [
                {
                  "code": "56018004",
                  "display": "Wheezing",
                  "system": "urn:oid:2.16.840.1.113883.6.96"
                }
              ]
            }
          }
        ],
        "id": "8e1519904bcd88fe0d18d6d17b47b859",
        "identifier": [
          {
            "system": "urn:oid:1.2.840.114350.1.13.861.1.7.2.696871",
            "value": "86579"
          },
          {
            "system": "urn:oid:google/reconciliation-stable-id",
            "value": "ffffffff-bb41-1cab-ffff-ffffe88d8b9e"
          }
        ],
        "meta": {
          "extension": [
            {
              "url": "urn:oid:google/reconciliation-timestamp",
              "valueInstant": "2012-08-16T00:00:00+00:00"
            }
          ],
          "tag": [
            {
              "code": "/",
              "system": "urn:oid:data-type/data-source"
            }
          ]
        },
        "resourceType": "Observation",
        "status": "final",
        "subject": {
          "reference": "Patient/ffffffff-9e5d-1176-ffff-ffffb3b88942"
        }
      }
    },
    {
      "request": {
        "method": "PUT",
        "url": "Location/76c2b2c8191bad8c30f83840b0724990"
      },
      "resource": {
        "address": {
          "city": "Blue Bell",
          "country": "US",
          "line": [
            "17 Daws Rd."
          ],
          "postalCode": "02368",
          "state": "MA"
        },
        "id": "76c2b2c8191bad8c30f83840b0724990",
        "identifier": [
          {
            "system": "urn:oid:google/reconciliation-stable-id",
            "value": "76c2b2c8191bad8c30f83840b0724990"
          }
        ],
        "meta": {
          "extension": [
            {
              "url": "urn:oid:google/reconciliation-timestamp",
              "valueInstant": "2012-08-16T00:00:00+00:00"
            }
          ],
          "tag": [
            {
              "code": "/",
              "system": "urn:oid:data-type/data-source"
            }
          ]
        },
        "name": "Community Health and Hospitals",
        "resourceType": "Location",
        "telecom": [
          {
            "system": "phone",
            "value": "+1(555)555-5000"
          }
        ],
        "type": [
          {
            "coding": [
              {
                "code": "1160-1",
                "display": "Urgent Care Center",
                "system": "urn:oid:2.16.840.1.113883.6.259"
              }
            ]
          }
        ]
      }
    },
    {
      "request": {
        "method": "PUT",
        "url": "Procedure/2c6582efbc15d1c712133a1f49d8cba5"
      },
      "resource": {
        "bodySite": [
          {
            "coding": [
              {
                "code": "416550000",
                "display": "Chest and/or abdomen structure",
                "system": "urn:oid:2.16.840.1.113883.6.96"
              }
            ]
          }
        ],
        "code": {
          "coding": [
            {
              "code": "416940007",
              "display": "H/O chest x-ray",
              "system": "urn:oid:2.16.840.1.113883.6.96"
            }
          ]
        },
        "id": "2c6582efbc15d1c712133a1f49d8cba5",
        "identifier": [
          {
            "system": "urn:oid:1.3.6.1.4.1.22812.3.2009316.3.4.7",
            "value": "545069400001"
          },
          {
            "system": "urn:oid:1.3.6.1.4.1.22812.3.2009316.3.4.7",
            "value": "545069400003"
          },
          {
            "system": "urn:oid:google/reconciliation-stable-id",
            "value": "00000000-7c6c-eb5d-0000-00003baeed78"
          }
        ],
        "location": {
          "reference": "Location/76c2b2c8191bad8c30f83840b0724990"
        },
        "meta": {
          "extension": [
            {
              "url": "urn:oid:google/reconciliation-timestamp",
              "valueInstant": "2012-08-16T00:00:00+00:00"
            }
          ],
          "tag": [
            {
              "code": "/",
              "system": "urn:oid:data-type/data-source"
            }
          ]
        },
        "performedDateTime": "2012-08-16T00:00:00+00:00",
        "performer": [
          {
            "actor": {
              "reference": "PractitionerRole/ffffffff-9fe7-0837-0000-00001c9dfa04"
            },
            "onBehalfOf": {
              "reference": "Organization/00000000-4966-e50f-ffff-ffff95c6e696"
            }
          }
        ],
        "reasonCode": [
          {
            "coding": [
              {
                "code": "56018004",
                "display": "Wheezing",
                "system": "urn:oid:2.16.840.1.113883.6.96"
              }
            ]
          }
        ],
        "reasonReference": [
          {
            "reference": "Observation/ffffffff-bb41-1cab-ffff-ffffe88d8b9e"
          }
        ],
        "resourceType": "Procedure",
        "status": "completed",
        "subject": {
          "reference": "Patient/ffffffff-9e5d-1176-ffff-ffffb3b88942"
        }
      }
    },
    {
      "request": {
        "method": "PUT",
        "url": "Procedure/0f6db2607a154136f3efeba0d350a90f"
      },
      "resource": {
        "bodySite": [
          {
            "coding": [
              {
                "code": "71854001",
                "display": "Colon structure",
                "system": "urn:oid:2.16.840.1.113883.6.96"
              }
            ]
          }
        ],
        "code": {
          "coding": [
            {
              "code": "73761001",
              "display": "Colonoscopy",
              "system": "urn:oid:2.16.840.1.113883.6.96"
            }
          ]
        },
        "id": "0f6db2607a154136f3efeba0d350a90f",
        "identifier": [
          {
            "system": "urn:oid:google/reconciliation-stable-id",
            "value": "00000000-26f1-bc04-ffff-ffffb1852d21"
          }
        ],
        "meta": {
          "extension": [
            {
              "url": "urn:oid:google/reconciliation-timestamp",
              "valueInstant": "2003-05-12T00:00:00+00:00"
            }
          ],
          "tag": [
            {
              "code": "/",
              "system": "urn:oid:data-type/data-source"
            }
          ]
        },
        "performedDateTime": "2003-05-12T00:00:00+00:00",
        "resourceType": "Procedure",
        "status": "completed",
        "subject": {
          "reference": "Patient/ffffffff-9e5d-1176-ffff-ffffb3b88942"
        }
      }
    },
    {
      "request": {
        "method": "PUT",
        "url": "Procedure/f379774a8b40cff13a68df3544e52a57"
      },
      "resource": {
        "code": {
          "coding": [
            {
              "code": "252195001",
              "display": "Exercise stress test",
              "system": "urn:oid:2.16.840.1.113883.6.96"
            }
          ]
        },
        "followUp": [
          {
            "coding": [
              {
                "code": "304507003",
                "display": "Exercise education",
                "system": "urn:oid:2.16.840.1.113883.6.96"
              }
            ]
          }
        ],
        "id": "f379774a8b40cff13a68df3544e52a57",
        "identifier": [
          {
            "system": "urn:oid:1.3.6.1.4.1.22812.3.2009316.3.4.7",
            "value": "545069400001"
          },
          {
            "system": "urn:oid:1.3.6.1.4.1.22812.3.2009316.3.4.7",
            "value": "545069400003"
          },
          {
            "system": "urn:oid:google/reconciliation-stable-id",
            "value": "00000000-7c6c-eb5d-0000-00003baeed78"
          }
        ],
        "meta": {
          "extension": [
            {
              "url": "urn:oid:google/reconciliation-timestamp",
              "valueInstant": "2012-08-06T00:00:00+00:00"
            }
          ],
          "tag": [
            {
              "code": "/",
              "system": "urn:oid:data-type/data-source"
            }
          ]
        },
        "performedDateTime": "2012-08-06T00:00:00+00:00",
        "resourceType": "Procedure",
        "status": "completed",
        "subject": {
          "reference": "Patient/ffffffff-9e5d-1176-ffff-ffffb3b88942"
        }
      }
    },
    {
      "request": {
        "method": "PUT",
        "url": "Procedure/479b3da9d8ea5edc7635acb0a07b5702"
      },
      "resource": {
        "code": {
          "coding": [
            {
              "code": "385767005",
              "display": "Meals on wheels provision education",
              "system": "urn:oid:2.16.840.1.113883.6.96"
            }
          ]
        },
        "id": "479b3da9d8ea5edc7635acb0a07b5702",
        "identifier": [
          {
            "system": "urn:oid:google/reconciliation-stable-id",
            "value": "00000000-0793-0dce-ffff-ffffafe3b379"
          }
        ],
        "meta": {
          "extension": [
            {
              "url": "urn:oid:google/reconciliation-timestamp",
              "valueInstant": "2016-10-03T18:27:10.000+00:00"
            }
          ],
          "tag": [
            {
              "code": "/",
              "system": "urn:oid:data-type/data-source"
            }
          ]
        },
        "performedPeriod": {
          "end": "2010-12-31T00:00:00+00:00",
          "start": "2010-09-09T00:00:00+00:00"
        },
        "resourceType": "Procedure",
        "status": "completed",
        "subject": {
          "reference": "Patient/ffffffff-9e5d-1176-ffff-ffffb3b88942"
        }
      }
    },
    {
      "request": {
        "method": "PUT",
        "url": "Practitioner/b023492cc19c7b6f65e1838ce14c0dd3"
      },
      "resource": {
        "id": "b023492cc19c7b6f65e1838ce14c0dd3",
        "identifier": [
          {
            "system": "urn:oid:2.16.840.1.113883.4.6",
            "value": "99999999"
          },
          {
            "system": "urn:oid:google/reconciliation-stable-id",
            "value": "00000000-7cba-eb40-0000-00001bac6207"
          }
        ],
        "meta": {
          "extension": [
            {
              "url": "urn:oid:google/reconciliation-timestamp",
              "valueInstant": "2012-08-16T00:00:00+00:00"
            }
          ],
          "tag": [
            {
              "code": "/",
              "system": "urn:oid:data-type/data-source"
            }
          ]
        },
        "name": [
          {
            "family": "Assigned",
            "given": [
              "Amandaa"
            ],
            "use": "usual"
          }
        ],
        "resourceType": "Practitioner"
      }
    },
    {
      "request": {
        "method": "PUT",
        "url": "PractitionerRole/5cd3cbdbc62e49798793331a9d449bd1"
      },
      "resource": {
        "active": true,
        "code": [
          {
            "coding": [
              {
                "code": "207Q00000X",
                "display": "Family Medicine",
                "system": "urn:oid:2.16.840.1.113883.6.101"
              }
            ]
          }
        ],
        "id": "5cd3cbdbc62e49798793331a9d449bd1",
        "identifier": [
          {
            "system": "urn:oid:2.16.840.1.113883.4.6",
            "value": "99999999"
          },
          {
            "system": "urn:oid:google/reconciliation-stable-id",
            "value": "ffffffff-ae30-24e9-ffff-ffffcf589c8d"
          }
        ],
        "meta": {
          "extension": [
            {
              "url": "urn:oid:google/reconciliation-timestamp",
              "valueInstant": "2012-08-16T00:00:00+00:00"
            }
          ],
          "tag": [
            {
              "code": "/",
              "system": "urn:oid:data-type/data-source"
            }
          ]
        },
        "organization": {
          "reference": "Organization/3a174777a4a13a82dfc400dc58492315"
        },
        "practitioner": {
          "reference": "Practitioner/00000000-7cba-eb40-0000-00001bac6207"
        },
        "resourceType": "PractitionerRole",
        "telecom": [
          {
            "system": "phone",
            "value": "555-555-1002"
          }
        ]
      }
    },
    {
      "request": {
        "method": "PUT",
        "url": "Provenance/b3551df7a2946adb3808d620fcf3dd61"
      },
      "resource": {
        "agent": [
          {
            "type": {
              "coding": [
                {
                  "code": "author",
                  "system": "http://terminology.hl7.org/CodeSystem/provenance-participant-type"
                }
              ]
            },
            "who": {
              "reference": "PractitionerRole/ffffffff-ae30-24e9-ffff-ffffcf589c8d"
            }
          }
        ],
        "id": "b3551df7a2946adb3808d620fcf3dd61",
        "meta": {
          "extension": [
            {
              "url": "urn:oid:google/reconciliation-timestamp",
              "valueInstant": "2012-08-16T00:00:00+00:00"
            }
          ],
          "tag": [
            {
              "code": "/",
              "system": "urn:oid:data-type/data-source"
            },
            {
              "code": "active",
              "system": "urn:oid:/bypass-reconciliation"
            }
          ]
        },
        "recorded": "2012-08-06T00:00:00.000+00:00",
        "resourceType": "Provenance",
        "target": [
          {
            "reference": "Procedure/00000000-7c6c-eb5d-0000-00003baeed78"
          },
          {
            "reference": "Procedure/00000000-26f1-bc04-ffff-ffffb1852d21"
          },
          {
            "reference": "Procedure/00000000-7c6c-eb5d-0000-00003baeed78"
          },
          {
            "reference": "Procedure/00000000-0793-0dce-ffff-ffffafe3b379"
          }
        ]
      }
    },
    {
      "request": {
        "method": "PUT",
        "url": "Observation/f96c325bbfe2b75c79b99cd1a699efe2"
      },
      "resource": {
        "category": [
          {
            "coding": [
              {
                "code": "laboratory",
                "system": "http://terminology.hl7.org/CodeSystem/observation-category"
              }
            ]
          }
        ],
        "code": {
          "coding": [
            {
              "code": "5811-5",
              "display": "Specific gravity of Urine by Test strip",
              "system": "urn:oid:2.16.840.1.113883.6.1"
            }
          ]
        },
        "component": [
          {
            "code": {
              "coding": [
                {
                  "code": "5811-5",
                  "display": "Specific gravity of Urine by Test strip",
                  "system": "urn:oid:2.16.840.1.113883.6.1"
                }
              ]
            },
            "valueQuantity": {
              "unit": "1",
              "value": 1.015
            }
          }
        ],
        "effectiveDateTime": "2015-06-22T00:00:00+00:00",
        "id": "f96c325bbfe2b75c79b99cd1a699efe2",
        "identifier": [
          {
            "system": "urn:oid:1.3.6.1.4.1.22812.20.1.1.4.5",
            "value": "13"
          },
          {
            "system": "urn:oid:google/reconciliation-stable-id",
            "value": "00000000-6bdb-52e7-ffff-ffff938fdd73"
          }
        ],
        "meta": {
          "extension": [
            {
              "url": "urn:oid:google/reconciliation-timestamp",
              "valueInstant": "2016-10-03T18:27:10.000+00:00"
            }
          ],
          "tag": [
            {
              "code": "/",
              "system": "urn:oid:data-type/data-source"
            }
          ]
        },
        "referenceRange": [
          {
            "high": {
              "unit": "1",
              "value": 1.03
            },
            "low": {
              "unit": "1",
              "value": 1.005
            },
            "text": "#_08b7d0ee-aff1-4144-a3a5-c89d56d855ad"
          }
        ],
        "resourceType": "Observation",
        "status": "final",
        "subject": {
          "reference": "Patient/ffffffff-9e5d-1176-ffff-ffffb3b88942"
        }
      }
    },
    {
      "request": {
        "method": "PUT",
        "url": "DiagnosticReport/173d7ae941fa48f2b48f0e3cbf47ce31"
      },
      "resource": {
        "category": [
          {
            "coding": [
              {
                "code": "unknown"
              }
            ]
          }
        ],
        "code": {
          "coding": [
            {
              "code": "24357-6",
              "system": "urn:oid:2.16.840.1.113883.6.1"
            }
          ]
        },
        "effectivePeriod": {
          "end": "2015-06-22T00:00:00+00:00",
          "start": "2015-06-22T00:00:00+00:00"
        },
        "id": "173d7ae941fa48f2b48f0e3cbf47ce31",
        "identifier": [
          {
            "system": "urn:oid:1.3.6.1.4.1.22812.20.1.1.4.5",
            "value": "1"
          },
          {
            "system": "urn:oid:google/reconciliation-stable-id",
            "value": "00000000-7331-fdb2-0000-00006d2c96b0"
          }
        ],
        "meta": {
          "extension": [
            {
              "url": "urn:oid:google/reconciliation-timestamp",
              "valueInstant": "2016-10-03T18:27:10.000+00:00"
            }
          ],
          "tag": [
            {
              "code": "/",
              "system": "urn:oid:data-type/data-source"
            }
          ]
        },
        "resourceType": "DiagnosticReport",
        "result": [
          {
            "reference": "Observation/00000000-6bdb-52e7-ffff-ffff938fdd73"
          }
        ],
        "status": "final",
        "subject": {
          "reference": "Patient/ffffffff-9e5d-1176-ffff-ffffb3b88942"
        }
      }
    },
    {
      "request": {
        "method": "PUT",
        "url": "Organization/05d124806b3a402e81407f43b42163ee"
      },
      "resource": {
        "active": true,
        "id": "05d124806b3a402e81407f43b42163ee",
        "identifier": [
          {
            "system": "http://hl7.org/fhir/sid/us-npi",
            "value": "unknown"
          },
          {
            "system": "urn:oid:google/reconciliation-stable-id",
            "value": "00000000-44a7-4cea-ffff-fffffe725fd1"
          }
        ],
        "meta": {
          "extension": [
            {
              "url": "urn:oid:google/reconciliation-timestamp",
              "valueInstant": "2016-10-03T18:27:10.000+00:00"
            }
          ],
          "tag": [
            {
              "code": "/",
              "system": "urn:oid:data-type/data-source"
            }
          ]
        },
        "name": "Agastha Medical Center",
        "resourceType": "Organization"
      }
    },
    {
      "request": {
        "method": "PUT",
        "url": "PractitionerRole/b2bedd18d8b356ec28acdc434f416fc7"
      },
      "resource": {
        "active": true,
        "id": "b2bedd18d8b356ec28acdc434f416fc7",
        "identifier": [
          {
            "system": "urn:oid:2.16.840.1.113883.4.6",
            "value": "2222222222"
          },
          {
            "system": "urn:oid:google/reconciliation-stable-id",
            "value": "00000000-7520-2c04-ffff-ffffa3d58df2"
          }
        ],
        "meta": {
          "extension": [
            {
              "url": "urn:oid:google/reconciliation-timestamp",
              "valueInstant": "2016-10-03T18:27:10.000+00:00"
            }
          ],
          "tag": [
            {
              "code": "/",
              "system": "urn:oid:data-type/data-source"
            }
          ]
        },
        "organization": {
          "reference": "Organization/00000000-44a7-4cea-ffff-fffffe725fd1"
        },
        "practitioner": {
          "reference": "Practitioner/ffffffff-c747-e698-0000-00004d95fa51"
        },
        "resourceType": "PractitionerRole",
        "telecom": [
          {
            "system": "phone",
            "value": "+1(555)555-1002"
          }
        ]
      }
    },
    {
      "request": {
        "method": "PUT",
        "url": "Condition/fdb8603326d1d4c2d2db1e0c8b7ae965"
      },
      "resource": {
        "code": {
          "coding": [
            {
              "code": "56018004",
              "display": "wheezing",
              "system": "urn:oid:2.16.840.1.113883.6.96"
            }
          ]
        },
        "id": "fdb8603326d1d4c2d2db1e0c8b7ae965",
        "identifier": [
          {
            "system": "urn:oid:1.3.6.1.4.1.22812.3.99930.3.4.1.3",
            "value": "44"
          },
          {
            "system": "urn:oid:google/reconciliation-stable-id",
            "value": "ffffffff-a50a-9a08-0000-000031c48152"
          }
        ],
        "meta": {
          "extension": [
            {
              "url": "urn:oid:google/reconciliation-timestamp",
              "valueInstant": "2016-10-03T18:27:10.000+00:00"
            }
          ],
          "tag": [
            {
              "code": "/",
              "system": "urn:oid:data-type/data-source"
            }
          ]
        },
        "resourceType": "Condition",
        "subject": {
          "reference": "Patient/ffffffff-9e5d-1176-ffff-ffffb3b88942"
        }
      }
    },
    {
      "request": {
        "method": "PUT",
        "url": "Condition/b86e798c8961a10cc4340f9731db28c1"
      },
      "resource": {
        "code": {
          "coding": [
            {
              "code": "363406005",
              "display": "Malignant neoplasm of colon",
              "system": "urn:oid:2.16.840.1.113883.6.96"
            }
          ]
        },
        "id": "b86e798c8961a10cc4340f9731db28c1",
        "identifier": [
          {
            "system": "urn:oid:google/reconciliation-stable-id",
            "value": "b86e798c8961a10cc4340f9731db28c1"
          }
        ],
        "meta": {
          "extension": [
            {
              "url": "urn:oid:google/reconciliation-timestamp",
              "valueInstant": "2012-08-01T00:00:00+00:00"
            }
          ],
          "tag": [
            {
              "code": "/",
              "system": "urn:oid:data-type/data-source"
            }
          ]
        },
        "resourceType": "Condition",
        "subject": {
          "reference": "Patient/ffffffff-9e5d-1176-ffff-ffffb3b88942"
        }
      }
    },
    {
      "request": {
        "method": "PUT",
        "url": "MedicationRequest/4bc9e07c0d4e8ecda129a12c3049fc0b"
      },
      "resource": {
        "authoredOn": "2013-09-11T23:03:00+00:00",
        "dispenseRequest": {
          "quantity": {
            "value": 3
          }
        },
        "dosageInstruction": [
          {
            "additionalInstruction": [
              {
                "coding": [
                  {
                    "code": "422037009",
                    "display": "Provider medication administration instructions",
                    "system": "urn:oid:2.16.840.1.113883.6.96"
                  }
                ]
              }
            ],
            "doseAndRate": [
              {
                "doseQuantity": {
                  "value": 1
                }
              }
            ],
            "maxDosePerPeriod": {
              "denominator": {
                "unit": "{day}",
                "value": 1
              },
              "numerator": {
                "unit": "{spray}",
                "value": 6
              }
            },
            "patientInstruction": "#MedicationSig_PRN_222222",
            "route": {
              "coding": [
                {
                  "code": "C38288",
                  "display": "Oral Route of Administration",
                  "system": "urn:oid:2.16.840.1.113883.3.26.1.1"
                }
              ]
            },
            "timing": {
              "repeat": {
                "boundsPeriod": {
                  "start": "2012-08-06T00:00:00+00:00"
                }
              }
            }
          }
        ],
        "id": "4bc9e07c0d4e8ecda129a12c3049fc0b",
        "identifier": [
          {
            "system": "urn:oid:google/reconciliation-stable-id",
            "value": "ffffffff-f515-3f8c-ffff-ffffb17cc5b4"
          }
        ],
        "intent": "order",
        "medicationCodeableConcept": {
          "coding": [
            {
              "code": "1190220",
              "display": "ACTUAT albuterol 0.1 MG/ACTUAT / ipratropium bromide 0.02 MG/ACTUAT Inhalation Spray",
              "system": "urn:oid:2.16.840.1.113883.6.88"
            }
          ]
        },
        "meta": {
          "extension": [
            {
              "url": "urn:oid:google/reconciliation-timestamp",
              "valueInstant": "2016-10-03T18:27:10.000+00:00"
            }
          ],
          "tag": [
            {
              "code": "/",
              "system": "urn:oid:data-type/data-source"
            }
          ]
        },
        "performer": {
          "reference": "PractitionerRole/00000000-7520-2c04-ffff-ffffa3d58df2"
        },
        "reasonCode": [
          {
            "coding": [
              {
                "code": "56018004",
                "display": "wheezing",
                "system": "urn:oid:2.16.840.1.113883.6.96"
              }
            ]
          }
        ],
        "reasonReference": [
          {
            "reference": "Condition/ffffffff-a50a-9a08-0000-000031c48152"
          }
        ],
        "requester": {
          "reference": "PractitionerRole/00000000-5908-9911-0000-00004f1bcf38"
        },
        "resourceType": "MedicationRequest",
        "status": "active",
        "subject": {
          "reference": "Patient/ffffffff-9e5d-1176-ffff-ffffb3b88942"
        }
      }
    },
    {
      "request": {
        "method": "PUT",
        "url": "MedicationRequest/46c061efb43c89b12d4e4f9680c4da4d"
      },
      "resource": {
        "dosageInstruction": [
          {
            "doseAndRate": [
              {
                "doseQuantity": {
                  "unit": "mg/kg",
                  "value": 5
                },
                "rateQuantity": {
                  "unit": "mL/h",
                  "value": 200
                }
              }
            ],
            "route": {
              "coding": [
                {
                  "code": "C38276",
                  "display": "Intravenous Route of Administration",
                  "system": "urn:oid:2.16.840.1.113883.3.26.1.1"
                }
              ]
            },
            "site": {
              "coding": [
                {
                  "code": "127949000",
                  "display": "Elbow region structure",
                  "system": "urn:oid:2.16.840.1.113883.6.96"
                }
              ]
            },
            "timing": {
              "event": [
                "2012-08-01T00:00:00+00:00"
              ]
            }
          }
        ],
        "id": "46c061efb43c89b12d4e4f9680c4da4d",
        "identifier": [
          {
            "system": "urn:oid:google/reconciliation-stable-id",
            "value": "00000000-47c6-6151-ffff-fffffd540bb4"
          }
        ],
        "intent": "order",
        "medicationCodeableConcept": {
          "coding": [
            {
              "code": "1657066",
              "display": "4 ML bevacizumab 25 MG/ML Injection",
              "system": "urn:oid:2.16.840.1.113883.6.88"
            }
          ]
        },
        "meta": {
          "extension": [
            {
              "url": "urn:oid:google/reconciliation-timestamp",
              "valueInstant": "2012-08-01T00:00:00+00:00"
            }
          ],
          "tag": [
            {
              "code": "/",
              "system": "urn:oid:data-type/data-source"
            }
          ]
        },
        "reasonCode": [
          {
            "coding": [
              {
                "code": "363406005",
                "display": "Malignant neoplasm of colon",
                "system": "urn:oid:2.16.840.1.113883.6.96"
              }
            ]
          }
        ],
        "reasonReference": [
          {
            "reference": "Condition/b86e798c8961a10cc4340f9731db28c1"
          }
        ],
        "resourceType": "MedicationRequest",
        "status": "active",
        "subject": {
          "reference": "Patient/ffffffff-9e5d-1176-ffff-ffffb3b88942"
        }
      }
    },
    {
      "request": {
        "method": "PUT",
        "url": "Provenance/0c7a8e2f30f55160b77edd98d72fe500"
      },
      "resource": {
        "agent": [
          {
            "type": {
              "coding": [
                {
                  "code": "author",
                  "system": "http://terminology.hl7.org/CodeSystem/provenance-participant-type"
                }
              ]
            },
            "who": {
              "reference": "PractitionerRole/00000000-5908-9911-0000-00004f1bcf38"
            }
          }
        ],
        "id": "0c7a8e2f30f55160b77edd98d72fe500",
        "meta": {
          "extension": [
            {
              "url": "urn:oid:google/reconciliation-timestamp",
              "valueInstant": "2016-10-03T18:27:10.000+00:00"
            }
          ],
          "tag": [
            {
              "code": "/",
              "system": "urn:oid:data-type/data-source"
            },
            {
              "code": "active",
              "system": "urn:oid:/bypass-reconciliation"
            }
          ]
        },
        "recorded": "2013-09-11T23:03:00.000+00:00",
        "resourceType": "Provenance",
        "target": [
          {
            "reference": "MedicationRequest/ffffffff-f515-3f8c-ffff-ffffb17cc5b4"
          },
          {
            "reference": "MedicationRequest/00000000-47c6-6151-ffff-fffffd540bb4"
          }
        ]
      }
    },
    {
      "request": {
        "method": "PUT",
        "url": "Organization/6ce4e3611c3765600c05172c4cdabdd8"
      },
      "resource": {
        "active": true,
        "id": "6ce4e3611c3765600c05172c4cdabdd8",
        "identifier": [
          {
            "system": "http://hl7.org/fhir/sid/us-npi",
            "value": "unknown"
          },
          {
            "system": "urn:oid:google/reconciliation-stable-id",
            "value": "00000000-44a7-4cea-ffff-fffffe725fd1"
          }
        ],
        "meta": {
          "extension": [
            {
              "url": "urn:oid:google/reconciliation-timestamp",
              "valueInstant": "2010-08-15T00:00:00+00:00"
            }
          ],
          "tag": [
            {
              "code": "/",
              "system": "urn:oid:data-type/data-source"
            }
          ]
        },
        "name": "Health LS - Immuno Inc.",
        "resourceType": "Organization"
      }
    },
    {
      "request": {
        "method": "PUT",
        "url": "PractitionerRole/039dfd99657b8b9353a4f907bdb9db8e"
      },
      "resource": {
        "active": true,
        "id": "039dfd99657b8b9353a4f907bdb9db8e",
        "identifier": [
          {
            "system": "urn:oid:2.16.840.1.113883.19.5.9999.456",
            "value": "2981824"
          },
          {
            "system": "urn:oid:google/reconciliation-stable-id",
            "value": "ffffffff-9fe7-0837-0000-00001c9dfa04"
          }
        ],
        "location": [
          {
            "reference": "Location/76651a54fcce59c8e7c16e9ea7770171"
          }
        ],
        "meta": {
          "extension": [
            {
              "url": "urn:oid:google/reconciliation-timestamp",
              "valueInstant": "2010-08-15T00:00:00+00:00"
            }
          ],
          "tag": [
            {
              "code": "/",
              "system": "urn:oid:data-type/data-source"
            }
          ]
        },
        "organization": {
          "reference": "Organization/00000000-4966-e50f-ffff-ffff95c6e696"
        },
        "practitioner": {
          "reference": "Practitioner/00000000-69ca-487f-ffff-ffffe2f9ba69"
        },
        "resourceType": "PractitionerRole"
      }
    },
    {
      "request": {
        "method": "PUT",
        "url": "Observation/48e3ed3a89f1ddd249ed2a5457204830"
      },
      "resource": {
        "category": [
          {
            "coding": [
              {
                "code": "laboratory",
                "system": "http://terminology.hl7.org/CodeSystem/observation-category"
              }
            ]
          }
        ],
        "code": {
          "coding": [
            {
              "code": "ASSERTION",
              "system": "urn:oid:2.16.840.1.113883.5.4"
            }
          ]
        },
        "component": [
          {
            "code": {
              "coding": [
                {
                  "code": "ASSERTION",
                  "system": "urn:oid:2.16.840.1.113883.5.4"
                }
              ]
            },
            "valueCodeableConcept": {
              "coding": [
                {
                  "code": "247472004",
                  "display": "Wheal",
                  "system": "urn:oid:2.16.840.1.113883.6.96"
                }
              ]
            }
          }
        ],
        "effectivePeriod": {
          "end": "2008-05-01T00:00:00+00:00",
          "start": "2008-05-01T00:00:00+00:00"
        },
        "id": "48e3ed3a89f1ddd249ed2a5457204830",
        "identifier": [
          {
            "system": "urn:oid:google/reconciliation-stable-id",
            "value": "48e3ed3a89f1ddd249ed2a5457204830"
          }
        ],
        "meta": {
          "extension": [
            {
              "url": "urn:oid:google/reconciliation-timestamp",
              "valueInstant": "2010-08-15T00:00:00+00:00"
            }
          ],
          "tag": [
            {
              "code": "/",
              "system": "urn:oid:data-type/data-source"
            }
          ]
        },
        "resourceType": "Observation",
        "status": "final",
        "subject": {
          "reference": "Patient/ffffffff-9e5d-1176-ffff-ffffb3b88942"
        }
      }
    },
    {
      "request": {
        "method": "PUT",
        "url": "Immunization/83307564e850877e31cd2fcd5acb9c2a"
      },
      "resource": {
        "doseQuantity": {
          "unit": "ug",
          "value": 60
        },
        "id": "83307564e850877e31cd2fcd5acb9c2a",
        "identifier": [
          {
            "system": "urn:oid:google/reconciliation-stable-id",
            "value": "ffffffff-ecee-769a-0000-0000118f0d6a"
          }
        ],
        "lotNumber": "1",
        "manufacturer": {
          "reference": "Organization/00000000-44a7-4cea-ffff-fffffe725fd1"
        },
        "meta": {
          "extension": [
            {
              "url": "urn:oid:google/reconciliation-timestamp",
              "valueInstant": "2010-08-15T00:00:00+00:00"
            }
          ],
          "tag": [
            {
              "code": "/",
              "system": "urn:oid:data-type/data-source"
            }
          ]
        },
        "occurrenceDateTime": "2010-08-15T00:00:00+00:00",
        "patient": {
          "reference": "Patient/ffffffff-9e5d-1176-ffff-ffffb3b88942"
        },
        "performer": [
          {
            "actor": {
              "reference": "PractitionerRole/ffffffff-9fe7-0837-0000-00001c9dfa04"
            },
            "function": {
              "coding": [
                {
                  "code": "AP",
                  "display": "Administering Provider",
                  "system": "http://terminology.hl7.org/CodeSystem/v2-0443"
                }
              ]
            }
          }
        ],
        "primarySource": true,
        "protocolApplied": [
          {
            "doseNumberPositiveInt": 1
          }
        ],
        "reaction": [
          {
            "date": "2008-05-01T00:00:00+00:00",
            "detail": {
              "reference": "Observation/48e3ed3a89f1ddd249ed2a5457204830"
            }
          }
        ],
        "reasonCode": [
          {
            "coding": [
              {
                "code": "195967001",
                "display": "asthma",
                "system": "urn:oid:2.16.840.1.113883.6.96"
              }
            ]
          }
        ],
        "recorded": "2010-08-15T00:00:00+00:00",
        "resourceType": "Immunization",
        "route": {
          "coding": [
            {
              "code": "C28161",
              "display": "Intramuscular Route of Administration",
              "system": "urn:oid:2.16.840.1.113883.3.26.1.1"
            }
          ]
        },
        "site": {
          "coding": [
            {
              "code": "700022004",
              "display": "Muscle and/or tendon structure of upper limb",
              "system": "urn:oid:2.16.840.1.113883.6.96"
            }
          ]
        },
        "status": "completed",
        "vaccineCode": {
          "coding": [
            {
              "code": "88",
              "display": "Influenza virus vaccine",
              "system": "urn:oid:2.16.840.1.113883.12.292"
            }
          ]
        }
      }
    },
    {
      "request": {
        "method": "PUT",
        "url": "Immunization/f122ceadccaa4a9accdc117634a89dda"
      },
      "resource": {
        "id": "f122ceadccaa4a9accdc117634a89dda",
        "identifier": [
          {
            "system": "urn:oid:google/reconciliation-stable-id",
            "value": "ffffffff-f900-3abf-ffff-ffff99ddd0be"
          }
        ],
        "lotNumber": "2",
        "meta": {
          "extension": [
            {
              "url": "urn:oid:google/reconciliation-timestamp",
              "valueInstant": "2015-11-15T00:00:00+00:00"
            }
          ],
          "tag": [
            {
              "code": "/",
              "system": "urn:oid:data-type/data-source"
            }
          ]
        },
        "occurrenceDateTime": "2015-11-15T00:00:00+00:00",
        "patient": {
          "reference": "Patient/ffffffff-9e5d-1176-ffff-ffffb3b88942"
        },
        "primarySource": true,
        "resourceType": "Immunization",
        "status": "not-done",
        "statusReason": {
          "coding": [
            {
              "code": "PATOBJ",
              "display": "patient objection",
              "system": "urn:oid:2.16.840.1.113883.5.8"
            }
          ]
        },
        "vaccineCode": {
          "coding": [
            {
              "code": "43",
              "display": "hepatitis B vaccine, adult dosage",
              "system": "urn:oid:2.16.840.1.113883.12.292"
            }
          ]
        }
      }
    },
    {
      "request": {
        "method": "PUT",
        "url": "PractitionerRole/f3689ae6d7f46ded0707188724232bcc"
      },
      "resource": {
        "active": true,
        "code": [
          {
            "coding": [
              {
                "code": "207Q00000X",
                "display": "Family Medicine",
                "system": "urn:oid:2.16.840.1.113883.6.101"
              }
            ]
          }
        ],
        "id": "f3689ae6d7f46ded0707188724232bcc",
        "identifier": [
          {
            "system": "urn:oid:2.16.840.1.113883.4.6",
            "value": "99999999"
          },
          {
            "system": "urn:oid:google/reconciliation-stable-id",
            "value": "ffffffff-ae30-24e9-ffff-ffffcf589c8d"
          }
        ],
        "meta": {
          "extension": [
            {
              "url": "urn:oid:google/reconciliation-timestamp",
              "valueInstant": "2010-08-15T00:00:00+00:00"
            }
          ],
          "tag": [
            {
              "code": "/",
              "system": "urn:oid:data-type/data-source"
            }
          ]
        },
        "organization": {
          "reference": "Organization/3a174777a4a13a82dfc400dc58492315"
        },
        "practitioner": {
          "reference": "Practitioner/00000000-7cba-eb40-0000-00001bac6207"
        },
        "resourceType": "PractitionerRole",
        "telecom": [
          {
            "system": "phone",
            "value": "555-555-1002"
          }
        ]
      }
    },
    {
      "request": {
        "method": "PUT",
        "url": "Provenance/7b7aa4e12d78aca7ab55789a9b15ff9e"
      },
      "resource": {
        "agent": [
          {
            "type": {
              "coding": [
                {
                  "code": "author",
                  "system": "http://terminology.hl7.org/CodeSystem/provenance-participant-type"
                }
              ]
            },
            "who": {
              "reference": "PractitionerRole/ffffffff-ae30-24e9-ffff-ffffcf589c8d"
            }
          }
        ],
        "id": "7b7aa4e12d78aca7ab55789a9b15ff9e",
        "meta": {
          "extension": [
            {
              "url": "urn:oid:google/reconciliation-timestamp",
              "valueInstant": "2010-08-15T00:00:00+00:00"
            }
          ],
          "tag": [
            {
              "code": "/",
              "system": "urn:oid:data-type/data-source"
            },
            {
              "code": "active",
              "system": "urn:oid:/bypass-reconciliation"
            }
          ]
        },
        "recorded": "2010-08-15T00:00:00.000+00:00",
        "resourceType": "Provenance",
        "target": [
          {
            "reference": "Immunization/ffffffff-ecee-769a-0000-0000118f0d6a"
          },
          {
            "reference": "Immunization/ffffffff-f900-3abf-ffff-ffff99ddd0be"
          }
        ]
      }
    },
    {
      "request": {
        "method": "PUT",
        "url": "Practitioner/4ee7310064fceb3159444dfed9e02e5c"
      },
      "resource": {
        "id": "4ee7310064fceb3159444dfed9e02e5c",
        "identifier": [
          {
            "system": "urn:oid:2.16.840.1.113883.4.6",
            "value": "99999999214"
          },
          {
            "system": "urn:oid:google/reconciliation-stable-id",
            "value": "ffffffff-987b-62d4-ffff-ffffa3b095e1"
          }
        ],
        "meta": {
          "extension": [
            {
              "url": "urn:oid:google/reconciliation-timestamp",
              "valueInstant": "2016-10-03T18:27:10.000+00:00"
            }
          ],
          "tag": [
            {
              "code": "/",
              "system": "urn:oid:data-type/data-source"
            }
          ]
        },
        "name": [
          {
            "family": "SevenJrObs",
            "given": [
              "Henry"
            ],
            "use": "usual"
          }
        ],
        "resourceType": "Practitioner"
      }
    },
    {
      "request": {
        "method": "PUT",
        "url": "PractitionerRole/9eed52e66913eb7c3fe6fbf2b2fa5068"
      },
      "resource": {
        "active": true,
        "code": [
          {
            "coding": [
              {
                "code": "207Q00000X",
                "display": "Allopathic & Osteopathic Physicians; Family Medicine",
                "system": "urn:oid:2.16.840.1.113883.6.101"
              }
            ]
          }
        ],
        "id": "9eed52e66913eb7c3fe6fbf2b2fa5068",
        "identifier": [
          {
            "system": "urn:oid:2.16.840.1.113883.4.6",
            "value": "99999999214"
          },
          {
            "system": "urn:oid:google/reconciliation-stable-id",
            "value": "00000000-4e18-f350-ffff-ffffc28db61f"
          }
        ],
        "meta": {
          "extension": [
            {
              "url": "urn:oid:google/reconciliation-timestamp",
              "valueInstant": "2016-10-03T18:27:10.000+00:00"
            }
          ],
          "tag": [
            {
              "code": "/",
              "system": "urn:oid:data-type/data-source"
            }
          ]
        },
        "organization": {
          "reference": "Organization/3a174777a4a13a82dfc400dc58492315"
        },
        "practitioner": {
          "reference": "Practitioner/ffffffff-987b-62d4-ffff-ffffa3b095e1"
        },
        "resourceType": "PractitionerRole",
        "telecom": [
          {
            "system": "phone",
            "value": "555-555-1002"
          }
        ]
      }
    },
    {
      "request": {
        "method": "PUT",
        "url": "AllergyIntolerance/06e5a79ce22c52f31223917caea1d0a3"
      },
      "resource": {
        "category": [
          "medication"
        ],
        "clinicalStatus": {
          "coding": [
            {
              "code": "active",
              "system": "http://terminology.hl7.org/CodeSystem/allergyintolerance-clinical"
            }
          ]
        },
        "code": {
          "coding": [
            {
              "code": "1191",
              "system": "urn:oid:2.16.840.1.113883.6.88"
            }
          ]
        },
        "id": "06e5a79ce22c52f31223917caea1d0a3",
        "identifier": [
          {
            "system": "urn:oid:1.3.6.1.4.1.22812.3.2009316.3.4.10.2",
            "value": "545077400001"
          },
          {
            "system": "urn:oid:1.3.6.1.4.1.22812.3.2009316.3.4.10.2",
            "value": "545077400003"
          },
          {
            "system": "urn:oid:google/reconciliation-stable-id",
            "value": "00000000-0c8e-ced0-ffff-ffffd98a7bc6"
          }
        ],
        "meta": {
          "extension": [
            {
              "url": "urn:oid:google/reconciliation-timestamp",
              "valueInstant": "2016-10-03T18:27:10.000+00:00"
            }
          ],
          "tag": [
            {
              "code": "/",
              "system": "urn:oid:data-type/data-source"
            }
          ]
        },
        "onsetDateTime": "2008-05-01T00:00:00+00:00",
        "patient": {
          "reference": "Patient/ffffffff-9e5d-1176-ffff-ffffb3b88942"
        },
        "reaction": [
          {
            "manifestation": [
              {
                "coding": [
                  {
                    "code": "247472004",
                    "display": "Wheal",
                    "system": "urn:oid:2.16.840.1.113883.6.96"
                  }
                ]
              }
            ],
            "onset": "2008-05-01T00:00:00+00:00",
            "severity": "severe",
            "substance": {
              "coding": [
                {
                  "code": "1049901",
                  "display": "Benadryl 12.5 mg chewable tablet",
                  "system": "urn:oid:2.16.840.1.113883.6.88"
                }
              ]
            }
          }
        ],
        "resourceType": "AllergyIntolerance",
        "type": "intolerance"
      }
    },
    {
      "request": {
        "method": "PUT",
        "url": "AllergyIntolerance/6b913f5beb88530ed50b2e977e3c5931"
      },
      "resource": {
        "category": [
          "food"
        ],
        "clinicalStatus": {
          "coding": [
            {
              "code": "active",
              "system": "http://terminology.hl7.org/CodeSystem/allergyintolerance-clinical"
            }
          ]
        },
        "code": {
          "coding": [
            {
              "code": "762952008",
              "display": "Peanut",
              "system": "urn:oid:2.16.840.1.113883.6.96"
            }
          ]
        },
        "id": "6b913f5beb88530ed50b2e977e3c5931",
        "identifier": [
          {
            "system": "urn:oid:google/reconciliation-stable-id",
            "value": "ffffffff-e9f4-fd68-ffff-ffff86b6a260"
          }
        ],
        "meta": {
          "extension": [
            {
              "url": "urn:oid:google/reconciliation-timestamp",
              "valueInstant": "2016-10-03T18:27:10.000+00:00"
            }
          ],
          "tag": [
            {
              "code": "/",
              "system": "urn:oid:data-type/data-source"
            }
          ]
        },
        "onsetDateTime": "2006-01-01T00:00:00+00:00",
        "patient": {
          "reference": "Patient/ffffffff-9e5d-1176-ffff-ffffb3b88942"
        },
        "recordedDate": "2014-01-04T00:00:00+00:00",
        "recorder": {
          "reference": "PractitionerRole/00000000-4e18-f350-ffff-ffffc28db61f"
        },
        "resourceType": "AllergyIntolerance",
        "type": "allergy"
      }
    },
    {
      "request": {
        "method": "PUT",
        "url": "AllergyIntolerance/ab8c6a24336aa6edbb9143c9ace1b731"
      },
      "resource": {
        "category": [
          "food"
        ],
        "clinicalStatus": {
          "coding": [
            {
              "code": "active",
              "system": "http://terminology.hl7.org/CodeSystem/allergyintolerance-clinical"
            },
            {
              "code": "55561003",
              "display": "Active",
              "system": "urn:oid:2.16.840.1.113883.6.96"
            }
          ]
        },
        "code": {
          "coding": [
            {
              "code": "762952008",
              "display": "Peanut",
              "system": "urn:oid:2.16.840.1.113883.6.96"
            }
          ]
        },
        "id": "ab8c6a24336aa6edbb9143c9ace1b731",
        "identifier": [
          {
            "system": "urn:oid:google/reconciliation-stable-id",
            "value": "ffffffff-e9f4-fd68-ffff-ffff86b6a260"
          }
        ],
        "meta": {
          "extension": [
            {
              "url": "urn:oid:google/reconciliation-timestamp",
              "valueInstant": "2016-10-03T18:27:10.000+00:00"
            }
          ],
          "tag": [
            {
              "code": "/",
              "system": "urn:oid:data-type/data-source"
            }
          ]
        },
        "onsetDateTime": "2003-01-01T00:00:00+00:00",
        "patient": {
          "reference": "Patient/ffffffff-9e5d-1176-ffff-ffffb3b88942"
        },
        "resourceType": "AllergyIntolerance",
        "type": "allergy"
      }
    },
    {
      "request": {
        "method": "PUT",
        "url": "Provenance/bf41fc53051a286696ee2254e4b739d4"
      },
      "resource": {
        "agent": [
          {
            "type": {
              "coding": [
                {
                  "code": "author",
                  "system": "http://terminology.hl7.org/CodeSystem/provenance-participant-type"
                }
              ]
            },
            "who": {
              "reference": "PractitionerRole/00000000-4e18-f350-ffff-ffffc28db61f"
            }
          }
        ],
        "id": "bf41fc53051a286696ee2254e4b739d4",
        "meta": {
          "extension": [
            {
              "url": "urn:oid:google/reconciliation-timestamp",
              "valueInstant": "2016-10-03T18:27:10.000+00:00"
            }
          ],
          "tag": [
            {
              "code": "/",
              "system": "urn:oid:data-type/data-source"
            },
            {
              "code": "active",
              "system": "urn:oid:/bypass-reconciliation"
            }
          ]
        },
        "recorded": "2014-01-04T00:00:00.000+00:00",
        "resourceType": "Provenance",
        "target": [
          {
            "reference": "AllergyIntolerance/00000000-0c8e-ced0-ffff-ffffd98a7bc6"
          },
          {
            "reference": "AllergyIntolerance/ffffffff-e9f4-fd68-ffff-ffff86b6a260"
          },
          {
            "reference": "AllergyIntolerance/ffffffff-e9f4-fd68-ffff-ffff86b6a260"
          }
        ]
      }
    },
    {
      "request": {
        "method": "PUT",
        "url": "Provenance/410e306b69428d57880d4556da32b2a1"
      },
      "resource": {
        "agent": [
          {
            "type": {
              "coding": [
                {
                  "code": "verifier",
                  "system": "http://terminology.hl7.org/CodeSystem/provenance-participant-type"
                }
              ]
            },
            "who": {
              "reference": "PractitionerRole/00000000-31e9-f345-ffff-ffffb73ee369"
            }
          },
          {
            "type": {
              "coding": [
                {
                  "code": "attester",
                  "system": "http://terminology.hl7.org/CodeSystem/provenance-participant-type"
                }
              ]
            },
            "who": {
              "reference": "PractitionerRole/00000000-31e9-f345-ffff-ffffb73ee369"
            }
          },
          {
            "type": {
              "coding": [
                {
                  "code": "custodian",
                  "system": "http://terminology.hl7.org/CodeSystem/provenance-participant-type"
                }
              ]
            },
            "who": {
              "reference": "Organization/ffffffff-aaca-f867-0000-0000070c5774"
            }
          }
        ],
        "id": "410e306b69428d57880d4556da32b2a1",
        "meta": {
          "extension": [
            {
              "url": "urn:oid:google/reconciliation-timestamp",
              "valueInstant": "2016-10-03T18:27:10.000+00:00"
            }
          ],
          "tag": [
            {
              "code": "/",
              "system": "urn:oid:data-type/data-source"
            },
            {
              "code": "active",
              "system": "urn:oid:/bypass-reconciliation"
            }
          ]
        },
        "recorded": "2016-10-03T18:27:10.000+00:00",
        "resourceType": "Provenance",
        "target": [
          {
            "reference": "Location/fe1b2d7c0a6a0d96f2fb790db569c183"
          },
          {
            "reference": "Practitioner/ffffffff-b8d5-9fd6-ffff-ffffbc12dbb4"
          },
          {
            "reference": "Organization/3a174777a4a13a82dfc400dc58492315"
          },
          {
            "reference": "PractitionerRole/00000000-31e9-f345-ffff-ffffb73ee369"
          },
          {
            "reference": "Organization/ffffffff-aaca-f867-0000-0000070c5774"
          },
          {
            "reference": "Practitioner/ffffffff-b8d5-9fd6-ffff-ffffbc12dbb4"
          },
          {
            "reference": "Practitioner/ffffffff-c747-e698-0000-00004d95fa51"
          },
          {
            "reference": "Patient/ffffffff-9e5d-1176-ffff-ffffb3b88942"
          },
          {
            "reference": "PractitionerRole/00000000-31e9-f345-ffff-ffffb73ee369"
          },
          {
            "reference": "PractitionerRole/ffffffff-9f83-48fd-0000-00003faffa1a"
          },
          {
            "reference": "Observation/00000000-3c9b-c140-0000-0000446b8453"
          },
          {
            "reference": "Practitioner/00000000-7cba-eb40-0000-00001bac6207"
          },
          {
            "reference": "PractitionerRole/ffffffff-ae30-24e9-ffff-ffffcf589c8d"
          },
          {
            "reference": "Observation/ffffffff-8648-9c4a-0000-0000497b11be"
          },
          {
            "reference": "Provenance/da7c545f14e477aaa1e0fc664988685e"
          },
          {
            "reference": "Practitioner/00000000-7f3a-c27b-0000-00006a667a39"
          },
          {
            "reference": "PractitionerRole/ffffffff-fdb1-44ca-ffff-ffff811d6618"
          },
          {
            "reference": "Encounter/8495d700e83419090ba117378796fb89"
          },
          {
            "reference": "Practitioner/00000000-7cba-eb40-0000-00001bac6207"
          },
          {
            "reference": "PractitionerRole/ffffffff-ae30-24e9-ffff-ffffcf589c8d"
          },
          {
            "reference": "Location/84481a9d0e4de82ee74ea2fcc0999901"
          },
          {
            "reference": "Practitioner/ffffffff-e463-472e-0000-0000168434f6"
          },
          {
            "reference": "PractitionerRole/00000000-5908-9911-0000-00004f1bcf38"
          },
          {
            "reference": "Condition/00000000-782f-65e9-0000-00000340a9f0"
          },
          {
            "reference": "Condition/ffffffff-91c3-853d-ffff-ffff9a7633de"
          },
          {
            "reference": "Condition/ffffffff-a50a-9a08-0000-000031c48152"
          },
          {
            "reference": "Condition/ffffffff-c902-b799-ffff-ffffdce6b5fd"
          },
          {
            "reference": "Condition/00000000-26c0-d25f-ffff-ffffeb6296f8"
          },
          {
            "reference": "Condition/00000000-1f10-ed44-0000-00003bb3ac8a"
          },
          {
            "reference": "Provenance/c6d2ea988d2a80bcd35bd28c1bfcb579"
          },
          {
            "reference": "Location/76651a54fcce59c8e7c16e9ea7770171"
          },
          {
            "reference": "Practitioner/00000000-69ca-487f-ffff-ffffe2f9ba69"
          },
          {
            "reference": "Organization/00000000-4966-e50f-ffff-ffff95c6e696"
          },
          {
            "reference": "PractitionerRole/ffffffff-9fe7-0837-0000-00001c9dfa04"
          },
          {
            "reference": "Observation/ffffffff-bb41-1cab-ffff-ffffe88d8b9e"
          },
          {
            "reference": "Location/76c2b2c8191bad8c30f83840b0724990"
          },
          {
            "reference": "Procedure/00000000-7c6c-eb5d-0000-00003baeed78"
          },
          {
            "reference": "Procedure/00000000-26f1-bc04-ffff-ffffb1852d21"
          },
          {
            "reference": "Procedure/00000000-7c6c-eb5d-0000-00003baeed78"
          },
          {
            "reference": "Procedure/00000000-0793-0dce-ffff-ffffafe3b379"
          },
          {
            "reference": "Practitioner/00000000-7cba-eb40-0000-00001bac6207"
          },
          {
            "reference": "PractitionerRole/ffffffff-ae30-24e9-ffff-ffffcf589c8d"
          },
          {
            "reference": "Provenance/b3551df7a2946adb3808d620fcf3dd61"
          },
          {
            "reference": "Observation/00000000-6bdb-52e7-ffff-ffff938fdd73"
          },
          {
            "reference": "DiagnosticReport/00000000-7331-fdb2-0000-00006d2c96b0"
          },
          {
            "reference": "Organization/00000000-44a7-4cea-ffff-fffffe725fd1"
          },
          {
            "reference": "PractitionerRole/00000000-7520-2c04-ffff-ffffa3d58df2"
          },
          {
            "reference": "Condition/ffffffff-a50a-9a08-0000-000031c48152"
          },
          {
            "reference": "Condition/b86e798c8961a10cc4340f9731db28c1"
          },
          {
            "reference": "MedicationRequest/ffffffff-f515-3f8c-ffff-ffffb17cc5b4"
          },
          {
            "reference": "MedicationRequest/00000000-47c6-6151-ffff-fffffd540bb4"
          },
          {
            "reference": "Provenance/0c7a8e2f30f55160b77edd98d72fe500"
          },
          {
            "reference": "Organization/00000000-44a7-4cea-ffff-fffffe725fd1"
          },
          {
            "reference": "PractitionerRole/ffffffff-9fe7-0837-0000-00001c9dfa04"
          },
          {
            "reference": "Observation/48e3ed3a89f1ddd249ed2a5457204830"
          },
          {
            "reference": "Immunization/ffffffff-ecee-769a-0000-0000118f0d6a"
          },
          {
            "reference": "Immunization/ffffffff-f900-3abf-ffff-ffff99ddd0be"
          },
          {
            "reference": "PractitionerRole/ffffffff-ae30-24e9-ffff-ffffcf589c8d"
          },
          {
            "reference": "Provenance/7b7aa4e12d78aca7ab55789a9b15ff9e"
          },
          {
            "reference": "Practitioner/ffffffff-987b-62d4-ffff-ffffa3b095e1"
          },
          {
            "reference": "PractitionerRole/00000000-4e18-f350-ffff-ffffc28db61f"
          },
          {
            "reference": "AllergyIntolerance/00000000-0c8e-ced0-ffff-ffffd98a7bc6"
          },
          {
            "reference": "AllergyIntolerance/ffffffff-e9f4-fd68-ffff-ffff86b6a260"
          },
          {
            "reference": "AllergyIntolerance/ffffffff-e9f4-fd68-ffff-ffff86b6a260"
          },
          {
            "reference": "Provenance/bf41fc53051a286696ee2254e4b739d4"
          },
          {
            "reference": "Composition/2f1bcacf1cd662c886aaa56a18d7f7b0"
          }
        ]
      }
    }
  ],
  "identifier": {
    "system": "urn:oid:973c7e16-05dd-484f-a780-e80904fd8ff0",
    "value": "unknown"
  },
  "resourceType": "Bundle",
  "timestamp": "2016-10-03T18:27:10.000+00:00",
  "type": "transaction"
}
